ts_ms,ax,ay,az,gx,gy,gz,mx,my,mz
355,0.988805,9.555259,1.012747,-0.006662,0.000400,0.002132,17.247190,57.740593,6.298974
358,1.048660,9.488221,1.015141,-0.005729,0.008527,0.004397,17.247190,57.740593,6.298974
360,1.036689,9.488221,0.991199,-0.005995,0.006928,0.006662,17.247190,57.740593,6.298974
363,1.012747,9.500193,0.967257,-0.003597,0.003864,0.007861,17.247190,57.740593,6.298974
365,1.039083,9.500193,1.029507,-0.003997,0.006395,0.001199,17.097216,56.390812,5.699071
368,0.979228,9.524135,1.024718,-0.006795,0.007461,0.005596,17.097216,56.390812,5.699071
370,1.010353,9.502586,0.988805,-0.006662,0.008793,0.000266,17.097216,56.390812,5.699071
373,0.969652,9.493010,1.010353,-0.004130,0.002931,0.003597,17.097216,56.390812,5.699071
375,1.015141,9.504981,0.998382,-0.008793,0.005995,0.001466,17.097216,56.390812,5.699071
377,1.007959,9.478644,1.036689,-0.008793,0.004130,0.006795,17.247190,54.591106,6.748900
380,1.022324,9.521740,1.029507,-0.003597,0.004930,0.008394,17.247190,54.591106,6.748900
382,0.986411,9.457097,0.998382,-0.003730,0.004930,0.003997,17.247190,54.591106,6.748900
384,1.005565,9.447520,0.995988,-0.003864,0.003198,0.001998,17.247190,54.591106,6.748900
387,1.051055,9.502586,1.055843,-0.010658,0.004130,0.003464,16.797264,54.591106,6.298974
389,1.072602,9.533711,0.991199,-0.006928,0.008527,0.000400,16.797264,54.591106,6.298974
392,1.029507,9.478644,1.010353,-0.001998,0.008127,0.006262,16.797264,54.591106,6.298974
394,1.010353,9.497798,0.984017,-0.005462,0.005462,0.006395,16.797264,54.591106,6.298974
396,1.036689,9.586384,1.034295,-0.004397,0.001466,0.008793,17.397165,56.090862,5.699071
399,1.065420,9.502586,0.995988,-0.001332,0.009459,0.002798,17.397165,56.090862,5.699071
401,0.952892,9.526528,1.007959,-0.004796,0.001998,0.008793,17.397165,56.090862,5.699071
403,0.957681,9.526528,1.003170,-0.006129,0.006662,0.006528,17.397165,56.090862,5.699071
406,0.962469,9.533711,0.998382,-0.006528,0.010658,0.005462,17.097216,56.390812,6.148998
408,1.010353,9.502586,0.995988,-0.005462,0.005196,0.005462,17.097216,56.390812,6.148998
410,1.041478,9.481039,1.079785,-0.003864,0.006528,0.004397,17.097216,56.390812,6.148998
413,1.031901,9.524135,1.000776,-0.003864,0.005995,0.006528,17.097216,56.390812,6.148998
415,1.039083,9.552865,1.029507,-0.008926,0.006662,0.004397,17.097216,56.390812,6.148998
418,0.991199,9.466674,0.993594,-0.005729,0.002931,0.000533,16.647287,57.590618,4.949194
421,1.017536,9.457097,0.993594,-0.008527,0.004663,0.005329,16.647287,57.590618,4.949194
423,1.036689,9.524135,1.019930,-0.005995,0.005462,0.007861,16.647287,57.590618,4.949194
426,1.015141,9.526528,1.012747,-0.005729,0.007994,0.000799,17.997068,56.990715,6.298974
428,1.027112,9.543288,1.024718,-0.006395,0.005995,0.006795,17.997068,56.990715,6.298974
431,0.984017,9.512163,1.012747,-0.003864,0.006928,0.006662,17.997068,56.990715,6.298974
433,1.017536,9.488221,0.995988,-0.003730,0.006928,0.009060,17.997068,56.990715,6.298974
435,1.007959,9.473856,1.012747,-0.009193,0.005063,0.001332,17.997068,56.990715,6.298974
438,0.967257,9.495404,0.995988,-0.008127,0.006928,0.001466,17.997068,56.990715,6.298974
440,1.041478,9.519346,1.051055,-0.012524,0.004930,0.008527,17.997068,56.990715,6.298974
443,1.017536,9.488221,1.000776,-0.009859,0.004796,0.004930,17.997068,56.990715,6.298974
445,1.048660,9.481039,0.988805,-0.005329,0.007194,0.001066,17.997068,56.990715,6.298974
447,0.976834,9.478644,0.986411,-0.003597,0.005196,0.002531,17.097216,55.191010,7.198827
450,1.024718,9.540894,1.022324,-0.003464,0.002798,0.004663,17.097216,55.191010,7.198827
452,0.976834,9.504981,1.079785,-0.005196,0.002798,0.006395,17.097216,55.191010,7.198827
454,0.998382,9.471462,0.964863,-0.007461,0.005596,0.005596,17.097216,55.191010,7.198827
457,1.022324,9.502586,1.039083,-0.004530,0.006262,0.002398,17.097216,55.191010,7.198827
459,1.003170,9.507375,1.022324,-0.007861,0.005329,0.006795,17.097216,55.191010,7.198827
545,1.048660,9.526528,1.039083,-0.006662,0.006928,0.009193,18.446995,56.240837,6.748900
547,0.981623,9.509769,1.031901,-0.004530,0.004663,0.004796,16.797264,56.990715,5.999022
550,1.029507,9.528923,0.993594,-0.002931,0.004930,0.004263,16.797264,56.990715,5.999022
552,0.995988,9.504981,0.998382,-0.004530,0.007594,0.009193,16.797264,56.990715,5.999022
554,1.027112,9.524135,1.024718,-0.005729,0.003997,0.009593,16.797264,56.990715,5.999022
557,1.000776,9.488221,1.012747,-0.008260,0.006795,0.002132,16.647287,56.090862,6.148998
559,0.993594,9.509769,0.981623,-0.006395,0.005729,0.003730,16.647287,56.090862,6.148998
561,0.979228,9.548077,1.010353,-0.005729,0.005329,0.007994,16.647287,56.090862,6.148998
564,0.979228,9.507375,1.012747,-0.009326,0.008127,0.004796,16.647287,56.090862,6.148998
566,0.995988,9.469068,0.976834,-0.005862,0.005729,0.001066,17.097216,57.590618,5.399120
568,1.043872,9.473856,1.019930,-0.007328,0.004930,0.007061,17.097216,57.590618,5.399120
571,1.003170,9.519346,1.005565,-0.005329,0.004930,0.004930,17.097216,57.590618,5.399120
573,0.972046,9.521740,0.964863,-0.008260,0.004530,0.008127,17.097216,57.590618,5.399120
576,0.995988,9.481039,1.046266,-0.010925,0.004397,0.009193,17.097216,57.590618,5.399120
578,1.046266,9.509769,0.988805,-0.005729,0.004930,0.007328,17.847092,56.390812,6.148998
802,1.029507,9.579201,0.995988,-0.004796,0.004930,0.005196,17.247190,56.240837,6.748900
806,1.024718,9.493010,1.017536,-0.005462,0.002665,0.005329,17.247190,56.240837,6.748900
809,1.051055,9.509769,0.986411,-0.006662,0.002398,0.000266,15.447483,55.191010,5.399120
813,0.998382,9.536105,0.993594,-0.002265,0.003064,0.006262,15.447483,55.191010,5.399120
816,1.003170,9.524135,0.995988,-0.007061,0.004397,-0.000799,15.447483,55.191010,5.399120
820,0.979228,9.512163,0.972046,-0.002265,0.009193,0.004397,15.447483,55.191010,5.399120
823,0.998382,9.485827,1.031901,-0.010925,0.008394,0.005995,15.447483,55.191010,5.399120
826,0.984017,9.560047,0.986411,-0.005729,0.003464,0.006662,15.447483,55.191010,5.399120
830,0.991199,9.516952,1.051055,-0.009193,0.003730,0.005596,17.397165,56.090862,7.648754
833,1.063026,9.540894,1.012747,-0.009992,0.005462,0.004263,17.397165,56.090862,7.648754
837,1.027112,9.493010,1.065420,-0.005462,0.002398,0.005329,17.397165,56.090862,7.648754
840,1.019930,9.521740,1.003170,-0.013590,0.005063,0.004130,17.397165,56.090862,7.648754
844,0.967257,9.502586,1.029507,-0.001865,0.004130,0.003864,17.397165,56.090862,7.648754
847,1.089362,9.457097,0.998382,-0.008527,0.004130,0.003064,17.997068,55.041035,6.748900
851,0.993594,9.483433,0.995988,-0.010126,0.006129,0.001865,17.997068,55.041035,6.748900
906,1.010353,9.488221,1.034295,-0.004130,0.003730,0.003064,17.097216,55.191010,6.448949
909,0.993594,9.524135,0.998382,-0.009193,0.005329,0.003464,17.247190,56.240837,6.298974
913,0.981623,9.526528,1.074997,-0.007861,0.006528,0.002798,17.247190,56.240837,6.298974
916,1.000776,9.485827,1.031901,-0.003198,0.003730,0.005995,17.247190,56.240837,6.298974
920,0.964863,9.588778,0.991199,-0.010525,0.006528,0.003464,17.097216,56.390812,4.649242
923,1.051055,9.495404,1.012747,-0.004796,0.004796,0.006528,17.097216,56.390812,4.649242
927,1.027112,9.488221,1.000776,-0.009593,0.004663,0.002265,17.097216,56.390812,4.649242
930,1.007959,9.531317,0.964863,-0.011991,0.001599,0.006928,17.997068,55.490959,5.999022
934,1.022324,9.452309,0.974440,-0.010259,0.004663,0.001599,17.997068,55.490959,5.999022
937,1.048660,9.512163,0.948104,-0.009326,0.004930,0.002665,16.197361,57.590618,6.898876
941,1.019930,9.564836,1.017536,-0.006395,0.003464,0.003464,16.197361,57.590618,6.898876
944,1.048660,9.531317,1.003170,-0.009992,0.008260,0.001865,16.197361,57.590618,6.898876
948,1.031901,9.552865,1.063026,-0.006662,0.001998,0.006262,17.097216,56.390812,5.399120
952,1.010353,9.495404,1.017536,-0.008926,0.003331,0.007861,17.097216,56.390812,5.399120
955,1.022324,9.545682,1.022324,-0.008926,0.007194,0.006395,17.097216,56.390812,5.399120
1064,1.063026,9.478644,0.931344,-0.009859,0.001199,0.008394,17.397165,56.390812,5.699071
1068,1.027112,9.536105,0.969652,-0.002665,0.000000,0.007727,17.397165,56.390812,5.699071
1071,0.993594,9.591172,1.046266,-0.008127,0.003597,0.006528,17.397165,56.390812,5.699071
1074,0.967257,9.440337,1.010353,-0.003730,0.008793,0.000000,17.397165,56.390812,5.699071
1077,0.957681,9.500193,1.055843,-0.006262,0.004263,0.007594,17.397165,56.390812,5.699071
1081,1.027112,9.512163,0.981623,-0.006928,0.004530,-0.002931,18.147043,56.090862,5.699071
1085,1.039083,9.457097,1.015141,-0.003198,0.001998,0.003464,18.147043,56.090862,5.699071
1088,0.976834,9.471462,0.988805,-0.010792,0.009726,0.007861,17.397165,55.191010,7.198827
1092,1.041478,9.481039,1.005565,-0.008260,0.000533,0.001199,17.397165,55.191010,7.198827
1095,1.079785,9.509769,1.022324,-0.005729,0.006528,0.003198,17.397165,55.191010,7.198827
1099,1.077391,9.464279,1.017536,-0.007727,0.004663,0.009060,16.647287,58.040546,6.148998
1102,1.055843,9.512163,1.031901,-0.007194,0.002798,0.006129,16.647287,58.040546,6.148998
1106,1.031901,9.473856,1.058237,-0.011591,0.006129,0.005329,16.647287,58.040546,6.148998
1110,1.010353,9.536105,1.053449,-0.005862,0.003198,0.003464,17.847092,57.140690,5.399120
1113,1.012747,9.471462,1.019930,-0.004930,0.002531,0.007328,17.847092,57.140690,5.399120
1197,1.017536,9.490616,0.991199,-0.007061,0.002798,0.001998,17.847092,55.640934,6.148998
1201,0.991199,9.528923,1.048660,-0.010792,0.003597,0.000533,17.847092,55.640934,6.148998
1204,0.988805,9.550470,0.964863,-0.007861,0.002798,0.004930,17.847092,55.640934,6.148998
1208,1.034295,9.437943,0.979228,-0.013590,0.001199,0.003064,17.847092,55.640934,6.148998
1211,0.933739,9.509769,1.019930,-0.006928,0.003997,0.003198,17.397165,55.640934,6.148998
1215,0.976834,9.531317,0.993594,-0.007594,0.010792,-0.000266,17.397165,55.640934,6.148998
1218,1.012747,9.500193,0.955287,-0.009459,0.003730,-0.001066,17.397165,55.640934,6.148998
1222,1.022324,9.526528,1.012747,-0.006795,0.004930,0.000000,17.397165,55.640934,6.148998
1226,0.969652,9.445126,1.010353,-0.011991,0.004397,0.005196,17.397165,55.640934,6.148998
1230,1.039083,9.560047,1.005565,-0.004530,0.001466,0.007461,17.547142,56.240837,6.298974
1234,0.974440,9.454702,1.000776,-0.003864,0.003198,0.004263,17.547142,56.240837,6.298974
1238,0.976834,9.526528,1.003170,-0.008527,0.009859,0.004130,17.547142,56.240837,6.298974
1241,1.010353,9.502586,0.993594,-0.004130,0.003864,0.005329,17.547142,56.240837,6.298974
1245,1.031901,9.512163,1.039083,-0.007328,0.004530,0.002665,17.547142,56.240837,6.298974
1249,0.979228,9.550470,0.998382,-0.009060,0.007461,0.008394,17.097216,54.891056,6.898876
1342,0.952892,9.495404,1.000776,-0.009593,0.001998,0.000400,16.647287,57.140690,6.148998
1345,0.969652,9.562442,1.010353,-0.006395,0.005462,0.005596,16.647287,57.140690,6.148998
1347,0.984017,9.526528,0.998382,-0.010126,0.005995,0.003064,16.647287,57.140690,6.148998
1350,0.976834,9.469068,1.003170,-0.007061,0.007861,0.005462,16.797264,55.790913,7.048851
1353,1.041478,9.521740,0.972046,-0.003597,0.005462,0.005329,16.797264,55.790913,7.048851
1356,1.060631,9.521740,1.048660,-0.011724,0.005862,0.002398,16.797264,55.790913,7.048851
1359,1.005565,9.488221,1.015141,-0.006528,0.006795,0.005462,16.797264,55.490959,6.298974
1362,0.974440,9.497798,1.048660,-0.003730,0.001332,-0.000933,16.797264,55.490959,6.298974
1365,1.024718,9.507375,1.010353,-0.011724,0.010259,0.002798,16.797264,55.490959,6.298974
1368,1.000776,9.516952,1.007959,-0.011191,0.002265,0.004663,16.797264,55.490959,6.298974
1371,1.022324,9.536105,1.005565,-0.009992,0.007461,0.006262,16.797264,55.490959,6.298974
1374,0.964863,9.473856,0.972046,-0.006928,0.006528,0.003464,16.797264,55.490959,6.298974
1377,0.988805,9.481039,1.005565,-0.011058,0.004397,0.005329,16.797264,55.490959,6.298974
1380,0.981623,9.521740,1.003170,-0.009459,0.002931,0.008260,16.047386,54.591106,5.549096
1384,1.034295,9.428367,1.000776,-0.009992,0.006262,0.001066,16.047386,54.591106,5.549096
1419,1.027112,9.545682,1.039083,-0.009060,0.002798,0.004130,17.097216,56.990715,6.298974
1423,1.039083,9.483433,1.022324,-0.002665,0.008394,0.004930,17.097216,56.840740,5.399120
1426,1.031901,9.540894,0.950498,-0.005329,0.006528,0.002665,17.097216,56.840740,5.399120
1430,1.015141,9.502586,1.067814,-0.006262,0.000533,0.005596,17.097216,56.840740,5.399120
1433,1.017536,9.469068,1.015141,-0.005196,0.003331,0.003464,17.097216,56.840740,5.399120
1437,1.019930,9.545682,1.017536,-0.009859,0.004663,0.001732,17.097216,56.840740,5.399120
1441,1.029507,9.490616,0.933739,-0.005196,0.002931,0.001599,16.047386,56.240837,6.298974
1445,1.041478,9.478644,1.010353,-0.002931,0.004930,0.008260,16.047386,56.240837,6.298974
1449,0.988805,9.521740,0.967257,-0.010658,0.004663,0.003331,16.047386,56.240837,6.298974
1453,1.079785,9.485827,1.005565,-0.006262,0.002265,0.003730,16.047386,56.240837,6.298974
1456,1.015141,9.483433,0.993594,-0.009593,0.003464,0.006129,16.047386,56.240837,6.298974
1460,1.051055,9.536105,1.015141,-0.006395,0.000400,0.005862,17.247190,56.990715,6.748900
1464,1.041478,9.521740,1.022324,-0.008793,0.004796,0.005862,17.247190,56.990715,6.748900
1468,1.051055,9.495404,1.015141,-0.005596,0.004397,0.006262,17.247190,56.990715,6.748900
1471,1.012747,9.519346,1.019930,-0.007861,0.006528,0.000533,16.797264,56.690765,7.498778
1544,1.039083,9.473856,0.998382,-0.010392,0.005329,0.006928,17.847092,56.390812,6.448949
1547,1.017536,9.533711,0.993594,-0.009193,0.000799,0.003064,17.847092,56.390812,6.448949
1550,0.993594,9.509769,0.998382,-0.006795,0.004530,0.005329,16.197361,56.390812,4.949194
1553,0.967257,9.466674,1.034295,-0.008660,0.006528,0.001332,16.197361,56.390812,4.949194
1556,1.003170,9.476251,1.055843,-0.008394,0.003997,0.004397,16.197361,56.390812,4.949194
1559,0.981623,9.536105,1.046266,-0.005462,0.003997,0.004930,16.197361,56.390812,4.949194
1562,1.005565,9.447520,0.976834,-0.006395,0.009326,0.001332,17.847092,58.040546,6.148998
1565,1.000776,9.509769,1.027112,-0.008260,0.005596,0.001599,17.847092,58.040546,6.148998
1568,1.041478,9.521740,1.043872,-0.004130,0.005729,0.004663,17.847092,58.040546,6.148998
1571,0.986411,9.500193,1.079785,-0.002798,0.004796,0.008793,16.197361,56.840740,4.949194
1574,1.007959,9.555259,1.010353,-0.003997,0.005596,0.002398,16.197361,56.840740,4.949194
1577,0.979228,9.576807,1.003170,-0.010925,0.005596,0.002798,16.197361,56.840740,4.949194
1580,0.972046,9.493010,0.952892,-0.008926,0.004130,0.006528,16.197361,56.840740,4.949194
1583,1.027112,9.514558,0.974440,-0.004796,0.006528,0.002132,16.197361,56.840740,4.949194
1587,0.981623,9.485827,1.005565,-0.005995,0.004130,0.005063,16.197361,56.840740,4.949194
1649,0.972046,9.471462,1.058237,-0.007194,0.001998,0.005063,17.547142,56.690765,5.999022
1652,1.017536,9.461885,1.022324,-0.007061,0.006129,0.003464,16.647287,56.840740,6.148998
1656,1.005565,9.516952,1.012747,-0.008260,0.004397,0.004130,16.647287,56.840740,6.148998
1659,0.960075,9.488221,0.986411,-0.004130,0.004796,0.003730,16.647287,56.840740,6.148998
1663,0.986411,9.536105,1.034295,-0.007594,0.005462,0.006262,17.247190,55.041035,5.249145
1666,0.974440,9.445126,0.993594,-0.012391,0.004397,0.002798,17.247190,55.041035,5.249145
1670,1.012747,9.533711,1.043872,-0.004397,0.007194,0.003597,17.247190,55.041035,5.249145
1673,0.984017,9.514558,0.984017,-0.003864,0.002798,0.008660,17.547142,54.591106,4.049340
1677,1.041478,9.483433,1.024718,-0.004530,0.000666,0.005063,17.547142,54.591106,4.049340
1680,0.991199,9.528923,1.015141,-0.003597,0.004263,0.000933,16.497313,56.990715,4.799218
1684,1.000776,9.519346,0.967257,-0.008260,0.004130,0.010658,16.497313,56.990715,4.799218
1687,1.034295,9.521740,0.986411,-0.006662,0.004397,-0.001332,16.497313,56.990715,4.799218
1691,1.015141,9.512163,0.967257,-0.008260,0.002665,0.007194,17.847092,56.090862,5.699071
1695,0.986411,9.512163,1.029507,-0.007061,0.005862,0.002132,17.847092,56.090862,5.699071
1699,1.036689,9.552865,1.022324,-0.004530,0.001466,0.007194,17.847092,56.090862,5.699071
1752,0.995988,9.524135,1.012747,-0.007594,0.006262,0.003864,16.647287,56.090862,6.448949
1756,0.998382,9.533711,1.012747,-0.009060,0.003464,0.006262,16.647287,56.090862,6.448949
1760,0.974440,9.488221,0.962469,-0.006129,0.005596,0.007861,16.647287,56.090862,6.448949
1763,0.998382,9.555259,1.027112,-0.003864,0.003730,0.003331,17.097216,55.640934,4.649242
1767,1.012747,9.493010,1.003170,-0.005462,0.002798,0.002931,17.097216,55.640934,4.649242
1770,1.005565,9.454702,0.995988,-0.003331,0.006662,0.002798,17.097216,55.640934,4.649242
1774,0.981623,9.512163,1.017536,-0.004530,0.006795,0.003730,17.097216,55.640934,4.649242
1777,1.065420,9.500193,1.007959,-0.004530,0.004130,0.001998,17.097216,55.640934,4.649242
1781,0.988805,9.488221,1.017536,-0.008260,0.004130,0.006129,17.097216,56.090862,6.148998
1784,1.029507,9.495404,1.053449,-0.007461,0.003064,0.006928,17.097216,56.090862,6.148998
1788,1.015141,9.493010,1.003170,-0.008527,0.005596,0.001066,17.097216,56.090862,6.148998
1791,1.031901,9.485827,1.022324,-0.011191,0.003997,0.003198,17.097216,56.090862,6.148998
1795,1.022324,9.485827,1.019930,-0.010792,0.003464,0.004663,17.097216,56.090862,6.148998
1798,1.012747,9.514558,0.993594,-0.005462,0.007194,0.007861,17.097216,56.090862,6.148998
1802,0.969652,9.473856,1.000776,-0.005329,0.005329,0.005862,16.497313,55.790913,5.549096
1853,1.015141,9.497798,0.981623,-0.009459,0.004397,0.003997,16.497313,56.990715,5.999022
1856,0.945710,9.519346,1.036689,-0.005862,0.002798,0.003864,16.497313,56.990715,5.999022
1860,1.012747,9.526528,1.012747,-0.005862,0.003730,0.005596,16.497313,56.990715,5.999022
1863,0.995988,9.524135,0.995988,-0.005729,0.007594,0.001599,15.297508,56.240837,5.549096
1867,1.027112,9.526528,1.019930,-0.010925,0.003997,0.006528,15.297508,56.240837,5.549096
1870,0.976834,9.514558,1.034295,-0.006395,0.002265,0.007328,16.797264,56.240837,5.549096
1874,1.015141,9.504981,0.969652,-0.005462,0.003464,0.005862,16.797264,56.690765,6.298974
1877,1.046266,9.516952,1.029507,-0.007727,0.001732,0.003997,16.797264,56.690765,6.298974
1881,1.070208,9.536105,1.074997,-0.006662,0.003997,0.001865,16.797264,56.690765,6.298974
1884,0.993594,9.471462,0.979228,-0.006795,0.001865,0.007194,17.847092,56.390812,6.148998
1888,1.003170,9.481039,1.005565,-0.004796,0.003331,0.006928,17.847092,56.390812,6.148998
1891,0.979228,9.524135,0.998382,-0.010259,0.004663,0.005596,17.247190,56.240837,6.748900
1895,1.029507,9.430760,1.007959,-0.008926,0.005063,0.004930,17.247190,56.240837,6.748900
1898,1.031901,9.490616,1.000776,-0.006129,0.004930,0.001466,17.247190,56.240837,6.748900
1902,0.976834,9.512163,1.000776,-0.007328,0.001066,0.002265,17.397165,55.640934,6.898876
1953,1.041478,9.454702,1.027112,-0.005462,0.003864,0.006262,15.747435,56.690765,5.249145
1956,0.991199,9.516952,1.031901,-0.004263,0.006528,0.002931,15.747435,56.690765,5.249145
1960,1.017536,9.548077,1.063026,-0.007194,0.004397,0.002132,15.747435,56.690765,5.249145
1963,1.058237,9.476251,1.015141,0.000133,0.001865,0.004263,15.747435,56.690765,5.249145
1967,0.938527,9.524135,1.000776,-0.007594,0.005462,0.009193,15.747435,56.690765,5.249145
1970,1.003170,9.500193,1.022324,-0.006662,0.003331,0.008660,15.747435,56.690765,5.249145
1974,0.969652,9.471462,0.991199,-0.007861,0.004397,0.002665,16.797264,56.240837,5.999022
1977,0.986411,9.433155,1.024718,-0.009593,0.004263,0.000666,16.797264,56.240837,5.999022
1981,0.991199,9.536105,0.995988,-0.008260,0.005462,0.002132,16.797264,56.240837,5.999022
1984,1.017536,9.502586,1.019930,-0.008926,0.004397,0.001865,16.797264,56.240837,5.999022
1988,1.017536,9.471462,1.000776,-0.010126,0.003864,0.007861,16.797264,56.240837,5.999022
1991,0.995988,9.552865,1.015141,-0.005995,0.006928,-0.003198,16.647287,55.640934,5.399120
1995,1.048660,9.528923,1.034295,-0.003597,0.002132,0.003331,16.647287,55.640934,5.399120
1998,1.003170,9.476251,0.950498,-0.010525,0.001199,0.005995,16.647287,55.640934,5.399120
2002,1.005565,9.536105,1.010353,-0.001066,0.006528,0.004796,16.647287,55.640934,5.399120
2057,1.010353,9.495404,0.988805,-0.008527,0.000000,0.006795,18.596970,56.840740,6.148998
2060,0.969652,9.502586,1.036689,-0.008926,0.006395,0.003864,18.596970,56.840740,6.148998
2064,1.055843,9.509769,1.019930,-0.004663,0.005063,0.001732,17.547142,55.490959,6.298974
2067,0.988805,9.548077,0.976834,-0.007328,0.003064,0.002531,17.547142,55.490959,6.298974
2071,1.027112,9.481039,0.962469,-0.010658,0.007727,0.006262,17.547142,55.490959,6.298974
2074,1.039083,9.514558,1.060631,-0.004796,0.005596,0.003997,17.547142,56.240837,7.798729
2078,0.995988,9.461885,1.005565,-0.009992,0.003064,0.001199,17.547142,56.240837,7.798729
2081,1.007959,9.500193,1.039083,-0.003864,0.003997,0.000000,17.547142,56.240837,7.798729
2085,1.019930,9.536105,0.993594,-0.007328,0.007194,0.001199,17.247190,56.240837,5.249145
2089,0.967257,9.512163,0.995988,-0.005729,0.006662,0.005063,17.247190,56.240837,5.249145
2092,1.041478,9.512163,0.993594,-0.009726,0.004130,0.002798,17.247190,56.690765,5.549096
2096,1.046266,9.514558,1.017536,-0.002265,0.002798,0.009726,17.247190,56.690765,5.549096
2099,1.022324,9.457097,0.995988,-0.007061,0.003464,0.003864,17.247190,56.690765,5.549096
2103,1.012747,9.514558,1.058237,-0.005329,0.006129,0.005329,17.097216,58.340496,5.699071
2106,0.986411,9.495404,1.031901,-0.005063,0.004663,0.006528,17.097216,58.340496,5.699071
2165,1.036689,9.521740,0.979228,-0.013323,0.003064,0.001732,17.847092,56.390812,6.448949
2168,0.981623,9.519346,1.010353,-0.010392,0.003597,0.003730,17.847092,56.390812,6.448949
2172,1.051055,9.464279,1.017536,-0.008926,0.007194,0.007461,17.847092,56.390812,6.448949
2175,0.964863,9.469068,1.007959,-0.004530,0.001199,0.007594,17.847092,56.390812,6.448949
2179,1.039083,9.516952,0.998382,-0.005995,0.006262,0.002132,17.847092,56.390812,6.448949
2182,1.048660,9.478644,0.976834,-0.002398,0.003464,0.007328,18.596970,56.390812,6.448949
2186,1.007959,9.504981,1.063026,-0.006395,0.005462,0.005596,18.596970,56.390812,6.448949
2190,1.034295,9.531317,0.991199,-0.006395,0.003997,0.004263,18.596970,56.390812,6.448949
2194,0.957681,9.509769,0.986411,-0.006395,0.004663,0.006528,17.247190,55.490959,6.298974
2197,0.967257,9.504981,1.005565,-0.005462,0.009459,0.000666,17.247190,55.490959,6.298974
2201,0.981623,9.528923,1.024718,-0.005862,0.004130,0.003198,17.247190,55.490959,6.298974
2204,1.005565,9.521740,1.010353,-0.010525,0.000933,0.002265,17.547142,56.990715,5.249145
2208,0.969652,9.540894,1.000776,-0.007994,0.003730,0.004263,17.547142,56.990715,5.249145
2211,0.988805,9.521740,1.019930,-0.003464,0.005862,0.000000,17.547142,56.990715,5.249145
2215,1.022324,9.548077,1.060631,-0.009726,0.005729,0.002931,17.397165,56.390812,5.699071
2267,1.012747,9.500193,1.055843,-0.003597,0.005995,0.003864,18.147043,56.090862,6.148998
2271,1.043872,9.485827,1.046266,-0.007861,0.003198,0.007727,18.147043,56.090862,6.148998
2274,1.003170,9.504981,1.017536,-0.007594,0.006395,0.002531,17.847092,56.840740,5.399120
2278,1.029507,9.526528,1.024718,-0.004397,0.004397,0.006928,17.847092,56.840740,5.399120
2281,1.010353,9.514558,0.991199,-0.012657,0.004263,0.004397,17.847092,56.840740,5.399120
2285,1.010353,9.516952,1.019930,-0.012257,0.004397,0.003464,18.147043,57.590618,6.898876
2289,1.029507,9.519346,0.998382,-0.009060,0.007861,0.001332,18.147043,57.590618,6.898876
2292,1.053449,9.536105,0.967257,-0.006795,0.001865,0.003730,17.097216,55.191010,5.399120
2296,1.048660,9.504981,1.012747,-0.005729,0.005329,0.006662,17.097216,55.191010,5.399120
2300,1.074997,9.562442,0.974440,-0.007328,0.006262,0.005729,17.097216,55.191010,5.399120
2303,0.988805,9.471462,1.048660,-0.006528,0.000933,0.001466,17.097216,55.191010,5.399120
2307,0.936133,9.490616,0.995988,-0.008660,0.007061,0.008127,17.097216,55.191010,5.399120
2310,1.022324,9.533711,1.003170,-0.011591,0.008394,0.006528,17.097216,55.191010,5.399120
2314,0.976834,9.507375,0.993594,-0.007328,0.005862,0.000933,18.446995,55.041035,5.549096
2317,0.936133,9.461885,0.988805,-0.008926,0.004930,0.001998,18.446995,55.041035,5.549096
2373,1.007959,9.567230,1.007959,-0.005462,0.002665,0.002132,17.397165,56.090862,5.399120
2377,1.027112,9.538500,1.015141,-0.006928,0.004263,0.008127,17.397165,56.090862,5.399120
2381,1.000776,9.521740,0.993594,-0.005729,-0.000666,-0.001865,17.397165,56.090862,5.399120
2384,1.003170,9.512163,0.993594,-0.003864,0.004796,0.001865,17.997068,56.690765,7.048851
2388,0.993594,9.471462,1.043872,-0.004130,-0.001599,0.000799,17.997068,56.690765,7.048851
2391,1.079785,9.521740,1.012747,-0.007328,0.003064,0.005995,17.997068,56.690765,7.048851
2395,1.046266,9.533711,1.010353,-0.004796,0.004930,0.003064,16.647287,55.640934,5.399120
2399,0.979228,9.473856,0.976834,-0.008793,0.005862,0.002531,16.647287,55.640934,5.399120
2402,0.981623,9.543288,1.010353,-0.002398,0.004530,0.004397,18.446995,56.690765,5.399120
2406,1.036689,9.572019,0.995988,-0.006928,0.004397,0.005063,18.446995,56.690765,5.249145
2409,1.031901,9.485827,1.024718,-0.008527,0.006395,0.008394,18.446995,56.690765,5.249145
2413,0.964863,9.497798,1.022324,-0.011724,0.002665,0.004663,17.547142,55.790913,5.249145
2416,1.003170,9.550470,1.012747,-0.005995,0.004263,0.000933,17.547142,55.790913,6.298974
2420,1.029507,9.519346,0.957681,-0.006928,0.002531,0.003331,17.547142,55.790913,6.298974
2423,0.974440,9.524135,0.976834,-0.008926,0.001865,0.005329,17.547142,56.240837,5.999022
2484,1.058237,9.481039,1.007959,-0.005995,0.005596,0.006528,17.847092,57.140690,6.448949
2488,1.027112,9.521740,1.060631,-0.004530,0.003997,0.005862,17.847092,57.140690,6.448949
2491,1.010353,9.493010,1.024718,-0.008926,0.007861,0.003997,17.847092,57.140690,6.448949
2495,1.074997,9.442732,0.976834,-0.004796,-0.001466,0.008127,17.847092,57.140690,6.448949
2498,1.019930,9.471462,1.019930,-0.011325,0.004930,0.005063,17.847092,57.140690,6.448949
2502,0.993594,9.476251,1.015141,-0.006795,0.004130,0.000266,17.847092,57.140690,6.448949
2505,1.055843,9.469068,1.015141,-0.007994,0.003730,0.007061,16.647287,55.191010,6.448949
2509,1.000776,9.481039,1.067814,-0.008926,0.005995,0.008527,16.647287,55.191010,6.448949
2512,1.012747,9.490616,1.024718,-0.011591,0.004530,0.002132,16.647287,55.191010,6.448949
2516,0.964863,9.488221,1.027112,-0.006928,0.003730,0.000533,16.647287,55.191010,6.448949
2520,1.027112,9.512163,1.003170,-0.004796,0.009992,0.006928,16.647287,55.191010,6.448949
2523,1.003170,9.512163,1.091756,-0.007861,0.005596,0.002398,18.147043,56.090862,7.198827
2527,0.976834,9.576807,1.005565,-0.006395,0.004397,0.004397,18.147043,56.090862,7.198827
2530,1.017536,9.548077,1.005565,-0.009459,0.003198,0.006528,18.147043,56.090862,7.198827
2534,0.957681,9.562442,1.024718,-0.011191,0.004663,0.004397,18.147043,56.090862,7.198827
2613,1.027112,9.473856,0.993594,-0.009593,0.005196,0.005462,18.596970,56.390812,4.199316
2616,0.948104,9.483433,1.015141,-0.006795,0.003730,0.004930,18.596970,56.390812,4.199316
2620,0.981623,9.521740,1.053449,-0.004397,0.005729,0.005329,18.596970,56.390812,4.199316
2623,1.079785,9.452309,0.979228,-0.006928,-0.000533,0.002398,18.596970,56.390812,4.199316
2626,1.010353,9.545682,0.986411,-0.003464,0.004530,0.008926,16.797264,55.041035,6.748900
2629,1.051055,9.595961,0.981623,-0.008260,0.004663,-0.000266,16.797264,55.041035,6.748900
2633,0.976834,9.562442,1.012747,-0.006795,0.006528,0.000266,16.797264,55.041035,6.748900
2636,1.029507,9.481039,1.022324,-0.012391,0.004397,0.001199,18.596970,56.090862,5.399120
2639,1.015141,9.490616,0.986411,-0.005462,0.007994,0.004530,18.596970,56.090862,5.399120
2642,1.012747,9.488221,1.012747,-0.011058,0.004796,0.004663,18.596970,56.090862,5.399120
2645,0.995988,9.495404,0.984017,-0.008260,0.008793,0.002665,15.747435,55.041035,5.999022
2648,1.034295,9.493010,0.998382,-0.009193,0.002931,-0.000533,15.747435,55.041035,5.999022
2652,1.010353,9.581595,0.995988,-0.006795,0.004130,0.005063,15.747435,55.041035,5.999022
2655,1.007959,9.552865,1.005565,-0.006395,0.002931,0.004663,17.397165,56.390812,5.399120
2658,0.976834,9.557653,1.012747,-0.008660,0.000266,0.001732,17.397165,56.390812,5.399120
2729,0.974440,9.540894,1.022324,-0.007594,0.004663,0.006395,17.397165,55.191010,6.448949
2732,1.074997,9.509769,1.036689,-0.005862,0.005862,0.005995,17.397165,55.191010,6.448949
2736,1.010353,9.521740,1.031901,-0.009193,0.006395,0.001599,16.647287,56.390812,4.949194
2739,1.000776,9.502586,1.055843,-0.006129,0.004263,0.004663,16.647287,56.390812,4.949194
2743,1.024718,9.500193,0.984017,-0.005995,0.006928,0.005596,16.647287,56.390812,4.949194
2746,1.027112,9.497798,0.974440,-0.011191,0.007194,0.004397,16.647287,56.840740,5.699071
2750,0.986411,9.481039,1.022324,-0.004130,0.004397,0.008527,16.647287,56.840740,5.699071
2753,1.043872,9.483433,1.019930,-0.007194,0.007061,0.007061,16.647287,56.840740,5.699071
2757,1.031901,9.512163,0.979228,-0.007194,0.002398,0.006262,17.397165,56.090862,6.898876
2760,1.067814,9.449914,1.058237,-0.010658,0.001865,0.005329,17.397165,56.090862,6.898876
2764,1.003170,9.512163,1.046266,-0.007461,0.001466,0.004663,17.847092,57.140690,5.399120
2767,1.017536,9.435549,0.962469,-0.005462,0.000666,0.003464,17.847092,57.140690,5.399120
2771,1.005565,9.435549,0.967257,-0.005063,0.003997,0.005729,17.847092,57.140690,5.399120
2774,1.015141,9.500193,0.969652,-0.005729,0.006262,0.004663,16.647287,54.891056,6.148998
2778,0.998382,9.483433,1.015141,-0.008260,0.005596,0.007461,16.647287,54.891056,6.148998
2834,1.012747,9.524135,1.024718,-0.005462,0.005995,0.005596,17.247190,55.490959,5.249145
2837,0.972046,9.497798,1.003170,-0.009593,0.004796,0.003464,17.247190,55.790913,5.249145
2841,1.012747,9.504981,1.007959,-0.002798,0.007461,0.009992,17.247190,55.790913,5.249145
2844,0.981623,9.533711,0.964863,-0.007194,0.001732,0.007861,17.247190,56.240837,5.999022
2848,1.007959,9.540894,0.986411,-0.009726,0.002132,0.007328,17.247190,56.240837,5.999022
2851,1.022324,9.545682,0.948104,-0.008527,0.007727,0.006262,17.247190,56.240837,5.999022
2855,0.964863,9.550470,0.988805,-0.006795,0.003064,-0.000266,17.247190,56.240837,5.999022
2858,1.007959,9.514558,0.981623,-0.008527,0.006262,0.002132,17.247190,56.240837,5.999022
2862,1.067814,9.461885,0.986411,-0.007727,0.005596,0.007461,17.247190,56.240837,5.999022
2865,1.010353,9.488221,1.012747,-0.007461,0.007861,0.005329,17.847092,56.090862,6.898876
2869,1.043872,9.555259,1.007959,-0.009859,0.004530,0.002798,17.847092,56.090862,6.898876
2873,1.022324,9.528923,0.981623,-0.007594,0.001865,0.009992,17.847092,56.090862,6.898876
2876,0.960075,9.521740,1.015141,-0.007994,0.008127,0.005063,17.847092,56.090862,6.898876
2880,1.034295,9.507375,1.022324,-0.003198,0.002798,-0.001998,17.847092,56.090862,6.898876
2884,0.986411,9.454702,0.993594,-0.002665,0.005196,-0.002265,17.847092,56.090862,6.898876
2991,1.015141,9.469068,0.950498,-0.004796,0.005329,0.004397,16.647287,57.140690,7.198827
2995,1.051055,9.528923,0.976834,-0.008660,0.006795,0.004397,18.596970,56.090862,4.949194
2999,1.000776,9.545682,1.003170,-0.003464,0.005729,0.002665,18.596970,56.090862,4.949194
3003,1.060631,9.531317,0.993594,-0.003864,0.002132,0.002798,18.596970,56.090862,4.949194
3007,1.027112,9.543288,1.010353,-0.006662,0.002798,0.006262,17.847092,56.840740,5.399120
3011,0.952892,9.536105,1.043872,-0.009992,0.004930,0.003730,17.847092,56.840740,5.399120
3015,1.070208,9.514558,1.046266,-0.004796,0.004263,0.001865,18.746946,55.790913,6.748900
3019,0.995988,9.497798,1.007959,-0.008527,0.002531,0.006928,18.746946,55.790913,6.748900
3023,1.039083,9.507375,1.024718,-0.008793,0.005063,0.006129,18.746946,55.790913,6.748900
3027,1.015141,9.540894,1.000776,-0.007594,0.004397,0.005995,17.247190,56.690765,6.748900
3031,1.036689,9.497798,1.012747,-0.005462,0.002798,0.006662,17.247190,56.690765,6.748900
3035,1.024718,9.509769,0.981623,-0.006928,0.003464,0.003730,17.247190,56.690765,6.748900
3039,1.041478,9.490616,1.031901,-0.007194,0.003730,0.000533,16.797264,55.490959,5.549096
3042,0.957681,9.504981,1.015141,-0.004530,0.002265,0.009459,16.797264,55.490959,5.549096
3046,1.019930,9.483433,1.019930,-0.008660,0.006528,0.007194,16.797264,55.490959,5.549096
3096,1.000776,9.521740,1.063026,-0.009193,0.002132,0.003730,18.596970,57.140690,6.148998
3100,1.019930,9.526528,1.024718,-0.009193,0.003997,0.008127,18.596970,57.140690,6.148998
3103,0.976834,9.543288,0.995988,-0.009992,0.005329,0.001066,18.596970,57.140690,6.148998
3107,1.010353,9.509769,1.003170,-0.003864,0.005596,0.005995,18.596970,57.140690,6.148998
3110,0.943315,9.538500,1.024718,-0.009060,0.002398,0.001732,18.596970,57.140690,6.148998
3114,1.015141,9.521740,0.998382,-0.010792,0.008793,0.003730,18.596970,57.140690,6.148998
3117,1.041478,9.528923,1.041478,-0.004930,0.008793,0.011191,16.797264,56.240837,6.748900
3121,1.029507,9.461885,1.015141,-0.006395,0.003997,0.012257,16.797264,56.240837,6.748900
3124,1.029507,9.497798,0.981623,-0.007328,0.000133,0.005729,16.797264,56.240837,6.748900
3128,1.029507,9.500193,0.986411,-0.005862,0.006262,0.011991,17.997068,56.990715,7.798729
3131,1.051055,9.481039,0.986411,-0.002931,0.007994,0.005862,17.997068,56.990715,7.798729
3135,0.986411,9.502586,0.995988,-0.010126,0.006129,0.004397,17.997068,56.990715,7.798729
3138,1.022324,9.447520,1.017536,-0.004530,0.005196,0.005995,17.097216,54.441132,6.148998
3142,1.058237,9.490616,1.036689,-0.004530,0.008527,0.000000,17.097216,54.441132,6.148998
3145,1.031901,9.519346,1.029507,-0.009060,0.006528,0.001599,17.247190,56.240837,5.549096
3243,1.007959,9.567230,1.000776,-0.006395,0.006662,0.004397,17.847092,54.441132,5.399120
3247,0.993594,9.528923,1.003170,-0.009593,0.004530,0.006528,17.847092,56.090862,6.898876
3251,0.993594,9.495404,0.981623,-0.001998,0.003064,0.002132,17.847092,56.090862,6.898876
3254,1.031901,9.555259,0.984017,-0.005462,0.009459,0.003064,17.847092,56.090862,6.898876
3258,1.043872,9.430760,1.015141,-0.011991,0.004263,0.001066,17.847092,56.090862,6.898876
3261,1.046266,9.457097,1.034295,-0.006262,0.000266,-0.000133,17.847092,56.090862,6.898876
3265,1.058237,9.502586,0.976834,-0.006395,0.000666,0.003730,17.847092,56.090862,6.898876
3268,1.053449,9.531317,0.976834,-0.003730,0.000933,0.008394,18.446995,55.790913,6.748900
3272,1.046266,9.562442,1.003170,-0.008260,0.001865,0.005596,18.446995,55.790913,6.748900
3276,1.029507,9.605537,0.976834,-0.009593,0.006129,0.006262,18.446995,55.790913,6.748900
3279,0.967257,9.524135,0.991199,-0.005995,0.005596,0.004663,18.446995,55.790913,6.748900
3283,1.005565,9.574412,1.015141,-0.006662,0.003064,0.005596,18.446995,55.790913,6.748900
3287,1.034295,9.533711,1.022324,-0.011058,0.007328,0.004930,15.897410,56.090862,6.448949
3290,1.012747,9.449914,0.972046,-0.004130,0.009859,0.003331,15.897410,56.090862,6.448949
3294,0.986411,9.428367,0.993594,-0.008660,0.003864,-0.003198,15.897410,56.090862,6.448949
3464,0.955287,9.538500,0.950498,-0.009193,0.005995,0.005329,17.247190,55.490959,5.999022
3468,0.993594,9.445126,1.017536,-0.007194,0.006795,0.005196,17.247190,55.490959,5.999022
3471,1.070208,9.615114,1.005565,-0.008260,0.004930,0.004796,17.247190,55.490959,5.999022
3474,1.055843,9.543288,1.058237,-0.013590,-0.000533,-0.002798,17.247190,55.490959,5.999022
3478,1.007959,9.533711,1.003170,-0.005729,0.007194,0.002265,18.446995,56.240837,5.549096
3482,0.948104,9.576807,1.039083,-0.006795,0.005196,0.005596,18.446995,56.240837,5.549096
3485,1.041478,9.476251,0.986411,-0.002265,0.003864,0.004130,18.446995,56.240837,5.549096
3488,0.995988,9.579201,1.015141,-0.004663,0.003597,0.001466,16.797264,56.990715,6.298974
3490,1.055843,9.445126,1.007959,-0.006129,0.005995,0.002398,16.797264,56.990715,6.298974
3493,1.043872,9.461885,0.955287,-0.007061,0.002531,0.001332,16.797264,56.990715,6.298974
3495,1.034295,9.564836,0.967257,-0.004663,0.006129,0.002531,16.797264,56.990715,6.298974
3498,0.991199,9.524135,0.998382,-0.009593,0.005862,0.000133,17.997068,55.490959,6.298974
3500,1.036689,9.490616,1.034295,-0.007194,0.004930,0.001466,17.997068,55.490959,6.298974
3502,1.043872,9.512163,1.024718,-0.010126,0.002132,0.007994,17.997068,55.490959,6.298974
3505,1.007959,9.514558,1.046266,-0.008793,0.005596,0.006129,17.997068,55.490959,6.298974
3594,0.938527,9.514558,1.019930,-0.002665,0.002398,0.003997,18.446995,55.490959,6.298974
3596,0.984017,9.488221,1.060631,-0.007594,0.003464,0.003997,18.446995,55.490959,6.298974
3598,0.974440,9.459491,1.043872,-0.009193,0.007328,0.003198,18.446995,55.490959,6.298974
3601,1.015141,9.500193,0.991199,-0.006928,0.008127,0.004263,18.446995,55.490959,6.298974
3603,1.034295,9.481039,1.019930,-0.007061,0.006129,0.003730,18.446995,55.490959,6.298974
3606,1.007959,9.469068,0.993594,-0.008926,0.005596,0.004930,18.446995,55.490959,6.298974
3608,0.979228,9.507375,1.079785,-0.008926,0.001199,0.004796,18.746946,56.240837,6.298974
3610,1.039083,9.560047,0.981623,-0.006662,0.002398,0.003997,18.746946,56.240837,6.298974
3613,1.012747,9.493010,1.017536,-0.007994,0.007861,0.003997,18.746946,56.240837,6.298974
3615,0.945710,9.497798,1.031901,-0.009060,0.000533,0.004930,18.746946,56.240837,6.298974
3617,0.979228,9.485827,0.993594,-0.008527,0.002798,0.004663,18.746946,56.240837,6.298974
3620,0.993594,9.519346,1.070208,-0.014256,0.007994,0.006795,18.746946,56.240837,6.298974
3622,0.967257,9.471462,0.995988,-0.006129,0.007861,0.005729,18.746946,56.240837,6.298974
3625,1.053449,9.533711,1.012747,-0.007328,0.003597,-0.000799,18.746946,56.240837,6.298974
3627,1.053449,9.514558,1.041478,-0.004796,0.005462,0.005596,17.247190,56.690765,5.549096
3745,1.051055,9.552865,0.972046,-0.003597,-0.000533,0.007061,17.247190,56.240837,6.748900
3747,0.955287,9.481039,0.995988,-0.009859,0.010126,0.004796,16.797264,55.790913,6.298974
3750,1.012747,9.497798,1.036689,-0.009459,0.005729,0.003864,16.797264,55.790913,6.298974
3752,1.029507,9.555259,1.051055,-0.007594,0.003997,0.003997,16.797264,55.790913,6.298974
3755,1.051055,9.519346,1.007959,-0.008394,0.001865,0.001332,16.797264,55.790913,6.298974
3757,1.031901,9.500193,1.034295,-0.007861,0.000933,0.002665,18.147043,57.140690,6.448949
3760,1.007959,9.538500,1.051055,-0.009726,0.000933,0.005596,18.147043,57.140690,6.448949
3762,0.938527,9.464279,0.995988,-0.004530,0.003997,0.001599,18.147043,57.140690,6.448949
3764,1.003170,9.459491,1.022324,-0.012657,-0.002398,0.001199,18.147043,57.140690,6.448949
3767,1.046266,9.528923,1.043872,-0.006795,0.003464,-0.000133,18.147043,57.140690,6.448949
3769,0.995988,9.545682,1.031901,-0.003730,0.003064,-0.001066,18.147043,57.140690,6.448949
3771,0.955287,9.461885,1.036689,-0.008660,0.002798,0.000533,18.147043,57.140690,6.448949
3774,1.046266,9.428367,1.022324,-0.008527,0.005462,0.010658,18.147043,57.140690,6.448949
3776,1.012747,9.545682,0.984017,-0.009726,0.002132,0.006795,18.147043,57.140690,6.448949
3779,1.043872,9.488221,1.051055,-0.006662,0.002665,0.003198,17.547142,55.490959,6.748900
3932,0.976834,9.514558,0.976834,-0.007994,0.003597,0.002798,16.047386,56.690765,5.999022
3935,1.015141,9.483433,1.017536,-0.003597,0.002798,0.003464,16.047386,56.690765,5.999022
3937,1.067814,9.485827,1.019930,-0.003864,0.004397,0.009859,16.047386,56.690765,5.999022
3939,1.027112,9.495404,1.070208,-0.008260,0.007328,0.003597,16.647287,56.090862,5.699071
3942,1.029507,9.528923,1.048660,-0.005729,0.006795,0.003730,16.647287,56.090862,5.699071
3944,1.051055,9.449914,0.988805,-0.006262,0.006928,0.003198,16.647287,56.090862,5.699071
3947,1.063026,9.483433,0.995988,-0.005329,0.001466,0.003198,16.647287,56.090862,5.699071
3949,1.034295,9.516952,0.988805,-0.003597,0.004397,0.002531,18.446995,56.690765,6.748900
3951,1.024718,9.552865,1.000776,-0.005729,0.002665,0.005596,18.446995,56.690765,6.748900
3954,1.029507,9.562442,0.993594,-0.006262,0.001865,0.005995,18.446995,56.690765,6.748900
3956,0.998382,9.502586,1.015141,-0.009593,0.005862,0.002265,18.446995,56.690765,6.748900
3959,0.962469,9.466674,0.993594,-0.007328,0.009193,0.003997,18.446995,56.690765,6.748900
3961,0.976834,9.490616,1.029507,-0.005596,0.001998,0.006662,18.446995,56.690765,6.748900
3963,1.065420,9.485827,1.007959,-0.004796,0.003864,0.008260,18.446995,56.690765,6.748900
3966,0.998382,9.490616,1.000776,-0.009859,0.003597,0.002798,18.446995,56.690765,6.748900
4133,1.017536,9.521740,1.067814,-0.005063,0.003464,0.007194,17.397165,55.191010,4.949194
4136,1.007959,9.514558,1.051055,-0.005329,0.001466,0.006528,17.397165,55.191010,4.949194
4138,0.981623,9.481039,0.995988,-0.008127,0.005995,0.006795,17.097216,55.191010,6.448949
4141,1.003170,9.504981,1.003170,-0.004397,0.003064,0.004930,17.097216,55.191010,6.448949
4143,1.055843,9.543288,0.976834,-0.008260,0.003597,0.008127,17.097216,55.191010,6.448949
4145,1.015141,9.512163,0.988805,-0.010259,0.005596,0.004397,17.097216,55.191010,6.448949
4148,0.981623,9.473856,1.015141,-0.005862,0.007861,0.002931,17.097216,55.191010,6.448949
4150,1.046266,9.516952,1.046266,-0.006662,0.007727,0.006928,17.097216,55.191010,6.448949
4153,0.986411,9.512163,1.024718,-0.007994,0.005329,0.003730,17.097216,55.191010,6.448949
4155,1.034295,9.545682,1.012747,-0.008260,0.002931,0.001865,17.097216,55.191010,6.448949
4157,1.005565,9.471462,0.991199,-0.008127,0.002798,0.003730,17.097216,55.191010,6.448949
4160,0.995988,9.560047,1.007959,-0.007594,-0.000266,0.006928,15.897410,55.640934,4.949194
4162,1.048660,9.512163,1.027112,-0.008260,0.002132,0.003997,15.897410,55.640934,4.949194
4165,1.065420,9.562442,1.043872,-0.008127,0.006528,0.005196,15.897410,55.640934,4.949194
4167,1.027112,9.495404,0.988805,-0.008926,0.009326,0.004130,15.897410,55.640934,4.949194
4236,1.000776,9.516952,0.945710,-0.009459,0.001865,0.006928,17.097216,53.991203,4.949194
4240,0.969652,9.500193,1.005565,-0.009726,0.001466,0.007994,18.596970,57.140690,5.399120
4244,1.041478,9.536105,0.981623,-0.004530,0.003464,0.002798,18.596970,57.140690,5.399120
4248,1.010353,9.524135,1.036689,-0.010126,0.002665,0.003730,18.596970,57.140690,5.399120
4252,1.027112,9.528923,1.012747,-0.006395,0.005862,0.007727,17.247190,56.240837,5.249145
4256,1.034295,9.464279,0.979228,-0.006395,0.002665,0.005596,17.247190,56.240837,5.249145
4260,0.964863,9.512163,1.031901,-0.004530,0.001998,0.003331,16.197361,56.390812,5.699071
4264,1.051055,9.519346,1.027112,-0.011325,0.005329,0.007861,16.197361,56.390812,5.699071
4268,1.060631,9.466674,0.950498,-0.003464,-0.001066,0.006528,16.197361,56.390812,5.699071
4271,1.012747,9.502586,1.022324,-0.006662,0.002265,0.005862,17.847092,55.640934,6.148998
4275,1.012747,9.514558,1.058237,-0.008926,0.005462,0.002398,17.847092,55.640934,6.148998
4279,1.039083,9.531317,1.005565,-0.003997,0.005329,0.009593,17.097216,55.640934,6.148998
4283,1.065420,9.461885,0.995988,-0.008527,0.004130,0.001066,17.097216,56.090862,5.399120
4287,1.053449,9.495404,0.964863,-0.004530,0.002798,0.007861,17.097216,56.090862,5.399120
4291,1.055843,9.533711,1.046266,-0.005995,0.003464,0.006129,16.047386,55.790913,5.999022
4497,0.991199,9.459491,1.005565,-0.010925,0.001466,0.004530,18.896921,56.390812,5.699071
4501,0.950498,9.507375,1.019930,-0.007994,0.008793,0.004663,17.847092,56.840740,6.148998
4505,0.976834,9.476251,0.981623,-0.005729,0.003997,0.004530,17.847092,56.840740,6.148998
4508,0.957681,9.488221,1.003170,-0.010525,0.006262,0.003064,17.847092,56.840740,6.148998
4512,0.979228,9.591172,1.010353,-0.006662,0.004796,0.006928,17.847092,56.840740,6.148998
4516,0.955287,9.485827,0.940921,-0.006795,0.004397,0.000266,17.847092,56.840740,6.148998
4519,1.022324,9.521740,0.984017,-0.005729,0.008260,0.009459,17.847092,56.840740,6.148998
4523,1.029507,9.533711,1.003170,-0.007461,0.006528,0.002265,18.147043,56.090862,6.898876
4527,1.005565,9.430760,1.070208,-0.006928,0.009459,0.002531,18.147043,56.090862,6.898876
4530,1.063026,9.545682,1.017536,-0.009726,0.004397,0.004930,18.147043,56.090862,6.898876
4534,0.974440,9.526528,1.000776,-0.006262,0.002132,0.007194,18.147043,56.090862,6.898876
4537,1.031901,9.516952,1.007959,-0.007727,0.002931,0.001865,18.147043,56.090862,6.898876
4541,1.048660,9.502586,1.000776,-0.008394,0.005729,0.002531,16.197361,56.090862,5.399120
4544,0.991199,9.497798,0.976834,-0.006262,0.005462,0.000933,16.197361,56.090862,5.399120
4548,1.024718,9.528923,1.034295,-0.002398,0.001998,0.004130,16.197361,56.090862,5.399120
4640,1.041478,9.488221,1.019930,-0.008260,0.001865,0.008394,17.547142,56.990715,6.748900
4643,0.986411,9.490616,1.027112,-0.006395,0.003064,0.004796,16.047386,56.690765,5.999022
4647,1.010353,9.528923,1.012747,-0.007861,0.006129,0.005063,16.047386,56.690765,5.999022
4650,0.969652,9.509769,0.991199,-0.008260,0.007727,0.000666,17.547142,55.041035,5.999022
4654,0.945710,9.507375,0.993594,-0.009593,0.005995,0.000933,17.547142,55.041035,5.999022
4657,0.984017,9.478644,1.051055,-0.009593,0.001732,0.003064,17.547142,55.041035,5.999022
4661,1.063026,9.521740,1.015141,-0.013057,0.007594,0.004397,16.197361,54.891056,7.648754
4664,1.029507,9.516952,1.027112,-0.006395,0.005329,0.004263,16.197361,54.891056,7.648754
4668,1.024718,9.514558,1.015141,-0.003464,0.004397,0.005462,16.197361,54.891056,7.648754
4671,0.993594,9.533711,1.012747,-0.010525,0.003064,0.000266,17.247190,56.240837,6.748900
4675,1.041478,9.442732,1.012747,-0.012391,0.001865,0.008260,17.247190,56.240837,6.748900
4679,1.005565,9.516952,1.005565,-0.007727,0.005995,0.005329,17.247190,56.240837,6.748900
4682,1.048660,9.502586,1.019930,-0.009593,0.005329,0.005462,17.997068,56.240837,7.498778
4686,1.077391,9.552865,1.029507,-0.003864,-0.000133,0.007594,17.997068,56.240837,7.498778
4689,0.964863,9.500193,1.031901,-0.010259,0.005329,0.009326,17.997068,56.240837,7.498778
4778,1.027112,9.497798,1.005565,-0.007061,0.003064,-0.001599,17.097216,57.140690,7.198827
4782,0.984017,9.536105,1.029507,-0.005063,0.006262,0.005995,17.097216,55.191010,6.448949
4785,0.921768,9.509769,1.022324,-0.007061,0.006928,0.004130,17.097216,55.191010,6.448949
4789,0.993594,9.543288,1.024718,-0.003597,0.002798,0.004930,17.097216,55.191010,6.448949
4792,1.022324,9.526528,0.991199,-0.002931,0.002798,0.003730,17.547142,58.190521,5.999022
4796,0.984017,9.497798,1.010353,-0.006928,0.005995,0.002265,17.547142,58.190521,5.999022
4799,1.041478,9.512163,0.993594,-0.003864,0.007861,0.005995,17.547142,58.190521,5.999022
4803,0.993594,9.519346,1.024718,-0.007061,0.005995,0.005596,17.247190,55.490959,5.999022
4806,1.039083,9.464279,1.029507,-0.007994,0.004796,0.005329,17.247190,55.490959,5.999022
4810,1.010353,9.533711,1.022324,-0.009193,0.000266,0.003864,17.247190,55.490959,5.999022
4813,1.034295,9.526528,0.984017,0.000533,0.001865,0.002265,17.397165,55.191010,6.898876
4817,0.993594,9.524135,1.003170,-0.012923,0.004263,0.001998,17.397165,55.191010,6.898876
4821,0.952892,9.476251,0.976834,-0.005995,0.006262,0.001599,18.147043,57.590618,6.148998
4824,0.967257,9.507375,1.015141,-0.005462,0.007594,0.000933,18.147043,57.590618,6.148998
4828,1.010353,9.485827,1.010353,-0.006262,0.002398,0.004530,18.147043,57.590618,6.148998
5004,0.972046,9.583989,1.019930,-0.008660,0.002665,0.001865,16.047386,56.240837,5.999022
5008,0.986411,9.531317,1.003170,-0.011991,0.001332,0.008394,16.047386,56.240837,5.999022
5012,0.979228,9.509769,1.007959,-0.009593,0.001998,0.003864,16.647287,57.140690,7.198827
5016,0.960075,9.483433,1.022324,-0.006129,0.003331,0.006795,16.647287,57.140690,7.198827
5020,0.969652,9.504981,1.010353,-0.007994,0.002665,0.006928,16.647287,57.140690,7.198827
5024,0.972046,9.507375,0.998382,-0.003997,0.006528,0.000933,15.897410,55.191010,6.148998
5028,0.988805,9.481039,1.017536,-0.002798,0.002398,0.000133,15.897410,55.191010,6.148998
5031,1.010353,9.478644,1.007959,-0.006928,0.000266,0.005862,16.797264,55.191010,6.148998
5035,0.972046,9.497798,1.031901,-0.002132,0.011858,0.002398,16.797264,56.240837,7.048851
5039,0.960075,9.495404,1.007959,-0.008926,0.004397,-0.000266,16.797264,56.240837,7.048851
5043,1.031901,9.528923,0.974440,-0.006395,0.006262,-0.001066,17.097216,56.390812,4.649242
5047,0.998382,9.533711,1.007959,-0.006528,0.001865,0.004397,17.097216,56.390812,4.649242
5051,1.012747,9.466674,1.010353,-0.003730,0.007194,0.008260,17.097216,56.390812,4.649242
5054,0.964863,9.490616,1.022324,-0.008260,0.008527,0.004796,16.497313,56.990715,7.498778
5058,0.981623,9.502586,1.017536,-0.005462,0.006262,0.000933,16.497313,56.990715,7.498778
5183,1.031901,9.330204,0.945710,-0.024515,-0.000933,0.045565,17.097216,56.090862,5.699071
5187,1.388637,9.208099,1.027112,-0.015588,0.002531,0.024648,17.097216,56.090862,5.699071
5191,0.950498,9.138668,1.022324,-0.007594,0.009726,-0.009992,17.097216,56.090862,5.699071
5194,0.869095,9.634268,1.007959,-0.003864,0.005462,-0.014123,17.397165,56.390812,5.699071
5198,1.048660,9.423578,0.981623,-0.008660,0.002531,-0.007328,17.397165,56.390812,5.699071
5202,0.950498,9.610326,1.017536,-0.010126,0.003064,0.009193,17.397165,56.390812,5.699071
5206,1.101333,9.320627,1.051055,-0.010525,0.005063,0.002798,17.247190,54.591106,6.748900
5209,0.943315,10.843340,0.632069,-0.031842,0.016121,-0.034773,17.247190,54.591106,6.748900
5213,5.430049,9.476251,-0.198719,0.008793,-0.001066,-0.102988,18.446995,56.990715,7.048851
5217,5.415684,10.805033,-0.577003,0.032109,0.060221,-0.022116,18.446995,56.990715,7.048851
5221,5.343858,9.258378,-0.842759,0.003730,0.095260,-0.008926,18.446995,56.990715,7.048851
5225,2.904167,9.181764,0.399832,0.005729,0.126170,0.053292,17.997068,55.790913,6.748900
5229,2.995146,10.817003,0.215478,0.000000,0.167871,0.040902,17.997068,55.790913,6.748900
5233,4.003105,8.288726,0.129287,0.021184,0.212904,-0.011724,17.997068,55.790913,6.748900
5237,4.896142,10.455479,-0.361524,0.039436,0.250342,-0.022516,17.997068,55.790913,6.748900
5393,1.168370,9.586384,1.036689,-0.010925,0.000533,0.007994,17.547142,55.490959,7.048851
5397,0.833182,9.416395,1.031901,-0.003864,0.005729,-0.000133,17.547142,55.490959,7.048851
5400,0.943315,9.569624,1.036689,-0.012391,0.003464,0.019185,17.547142,55.490959,7.048851
5404,1.024718,9.291897,1.015141,-0.009859,0.004663,0.011458,17.547142,55.490959,7.048851
5407,1.072602,9.698911,0.993594,-0.001732,-0.000799,-0.009726,17.547142,55.490959,7.048851
5411,0.873884,8.413225,0.914585,0.001732,-0.000400,-0.001466,17.547142,55.490959,7.048851
5414,1.019930,9.785102,0.931344,-0.006528,-0.001332,0.004796,17.247190,55.790913,5.999022
5418,0.962469,8.937555,1.003170,-0.005462,0.005862,0.013456,17.247190,55.790913,5.999022
5421,1.019930,9.380483,1.003170,0.011458,0.001199,0.021184,17.247190,55.790913,5.999022
5425,1.161188,9.911995,1.074997,-0.008260,0.003464,0.007727,17.247190,55.790913,5.999022
5428,0.940921,8.951921,1.055843,-0.001066,0.009459,-0.016121,17.247190,55.790913,5.999022
5432,1.000776,10.108319,0.981623,0.008793,0.003064,0.001865,17.247190,55.790913,5.999022
5435,0.775721,9.428367,1.120486,-0.003997,0.005063,0.010658,17.097216,56.090862,4.949194
5439,1.096544,9.852140,1.034295,-0.001732,0.000266,0.008926,17.097216,56.090862,4.949194
5442,1.027112,9.320627,1.055843,-0.005462,0.001066,-0.001466,17.097216,56.090862,4.949194
5558,0.845153,9.856929,1.015141,-0.009459,0.004130,0.005196,15.747435,56.690765,5.249145
5562,0.991199,9.835381,1.051055,-0.016920,0.004130,0.020784,15.747435,56.690765,5.249145
5565,0.981623,9.382876,1.022324,-0.020384,0.002931,0.023982,17.247190,54.591106,7.048851
5569,1.017536,9.739613,0.991199,-0.011458,0.000933,0.023848,17.247190,54.591106,7.048851
5572,1.103727,9.576807,1.053449,-0.014123,0.003464,0.020784,17.247190,54.591106,7.048851
5576,1.029507,9.232041,1.051055,-0.014789,0.000933,0.012257,17.247190,55.790913,6.748900
5579,1.067814,9.399636,1.031901,-0.011325,0.002931,0.011858,17.247190,55.790913,6.748900
5583,1.113304,9.545682,1.017536,-0.018253,0.002132,0.014655,17.247190,55.790913,6.748900
5586,1.005565,9.253590,0.962469,-0.010925,0.004663,0.001466,16.647287,56.390812,5.699071
5590,1.017536,9.289502,0.950498,-0.007861,0.003331,-0.003064,16.647287,56.390812,5.699071
5593,1.003170,9.416395,0.979228,-0.001332,0.005329,0.000533,16.647287,56.390812,5.699071
5597,1.063026,9.703699,1.055843,0.000000,0.006928,-0.003464,16.647287,56.390812,5.699071
5600,1.058237,9.354146,1.015141,-0.012391,0.003064,-0.001332,16.647287,56.390812,5.699071
5604,1.036689,9.485827,0.984017,-0.003597,0.005329,0.007328,17.847092,55.191010,6.898876
5607,0.952892,9.248801,1.003170,-0.005729,0.009593,-0.002265,17.847092,55.191010,6.898876
5700,1.503559,10.139444,0.940921,-0.013590,0.010259,-0.021583,17.097216,54.891056,5.699071
5703,0.991199,8.599973,0.976834,0.021983,0.021717,-0.094594,17.097216,54.891056,5.699071
5707,0.770933,9.222465,1.149217,0.025580,0.027712,-0.122306,15.447483,54.891056,5.399120
5710,0.957681,9.428367,1.017536,0.039037,0.028112,-0.111381,15.447483,54.891056,5.399120
5714,0.617704,10.093954,1.065420,0.023715,0.019185,-0.089132,16.197361,54.891056,6.448949
5717,0.766145,10.151415,0.981623,0.008793,0.007061,-0.033708,16.197361,54.891056,6.448949
5721,0.718261,9.962274,1.058237,-0.006129,0.000933,-0.017187,16.197361,54.891056,6.448949
5724,0.893037,9.346964,1.034295,-0.006129,0.006528,-0.019718,16.647287,53.991203,4.649242
5728,1.010353,9.811439,1.055843,-0.007328,0.003464,-0.009992,16.647287,53.991203,4.649242
5731,0.888249,9.708488,1.041478,-0.000666,0.005995,-0.016387,16.647287,53.991203,4.649242
5735,1.003170,9.655815,1.053449,-0.002531,0.008660,-0.016387,17.097216,56.090862,4.649242
5739,1.144428,9.734824,1.007959,-0.004796,0.002798,-0.009859,17.097216,56.090862,4.649242
5742,0.864307,9.102755,0.885855,-0.003864,0.006662,-0.010525,17.097216,56.090862,4.649242
5746,1.204283,9.859323,1.007959,-0.003464,0.001732,0.015188,17.097216,54.891056,4.199316
5749,0.991199,9.387665,1.077391,-0.015855,0.001732,0.014922,17.097216,54.891056,4.199316
5891,0.134075,7.328651,0.497994,-0.112047,-0.208240,-0.079406,16.047386,55.790913,5.249145
5895,-4.929661,10.383653,0.919373,-0.076342,-0.247410,-0.100190,16.647287,53.991203,5.249145
5898,-5.832275,12.806585,0.909797,-0.100456,-0.335077,-0.096326,16.647287,53.991203,5.399120
5902,-1.821988,12.459426,1.458069,-0.144956,-0.416881,-0.068081,16.647287,53.991203,5.399120
5906,-1.429338,12.902353,2.595315,-0.205443,-0.449123,-0.073144,17.547142,55.790913,5.249145
5910,-2.851494,10.986992,3.282450,-0.260734,-0.498818,-0.054092,17.547142,55.790913,5.249145
5914,-4.455609,12.119449,3.897760,-0.286714,-0.560371,-0.049029,17.547142,55.790913,5.249145
5917,-4.106056,9.557653,2.722207,-0.326017,-0.633115,-0.109916,16.197361,55.640934,4.949194
5921,1.371878,7.038953,2.410961,-0.275789,-0.664557,-0.149885,16.197361,55.640934,4.949194
5925,6.892907,7.163452,3.083732,-0.224894,-0.584485,-0.283250,17.397165,54.441132,5.399120
5929,5.808333,6.603208,2.643199,-0.134830,-0.419945,-0.418213,17.397165,54.441132,5.399120
5933,3.452439,9.356541,2.877831,-0.080072,-0.321354,-0.501216,17.397165,54.441132,5.399120
5937,5.868188,6.660669,2.590526,-0.054225,-0.199047,-0.591280,17.397165,54.441132,5.399120
5941,7.208941,6.217742,2.908955,0.032375,-0.080338,-0.606868,17.397165,54.441132,5.399120
5945,8.508993,5.257667,3.308787,0.098191,0.111648,-0.637378,18.147043,55.640934,3.149487
6098,2.530671,10.620679,3.488352,-0.687606,-0.974986,-0.431802,19.496824,56.990715,5.999022
6102,2.470816,11.106702,4.050989,-0.659361,-0.883323,-0.510675,19.496824,56.990715,5.999022
6105,4.003105,11.587936,4.165911,-0.671885,-0.766879,-0.512541,19.496824,56.990715,5.999022
6109,5.365406,11.702858,4.120421,-0.694002,-0.611265,-0.612064,19.496824,56.990715,5.999022
6112,5.810728,10.726024,4.429273,-0.676282,-0.449389,-0.753556,19.496824,56.990715,5.999022
6116,6.205771,11.492168,4.970363,-0.665890,-0.256470,-0.875729,19.196873,55.790913,6.298974
6119,4.989516,12.035652,5.207389,-0.662559,-0.083403,-1.016821,19.196873,55.790913,6.298974
6123,3.433285,10.479421,4.936844,-0.678813,0.065417,-1.163375,19.196873,55.790913,6.298974
6126,1.886631,10.900801,4.675876,-0.660827,0.174133,-1.249842,19.196873,55.790913,6.298974
6130,0.780510,11.087548,4.654328,-0.642308,0.235020,-1.291011,19.196873,55.790913,6.298974
6133,0.423774,10.637438,4.584896,-0.638044,0.284982,-1.306199,19.196873,55.790913,6.298974
6137,0.584185,10.350134,4.637568,-0.624055,0.336276,-1.303002,19.346848,58.790424,7.198827
6140,1.441309,11.118672,4.666299,-0.593545,0.399161,-1.287413,19.346848,58.790424,7.198827
6144,2.257732,11.475409,4.836287,-0.583953,0.476968,-1.271559,19.346848,58.790424,7.198827
6147,2.123657,11.322180,5.130774,-0.560904,0.562769,-1.280352,19.346848,58.790424,7.198827
6210,0.873884,11.968615,1.051055,0.162409,1.167505,-2.920162,24.595993,57.740593,10.048363
6213,1.580173,12.260707,0.928950,0.165606,1.257836,-3.153184,24.595993,57.740593,10.048363
6217,1.874660,12.638990,1.043872,0.134963,1.371616,-3.356361,24.296041,57.590618,10.648265
6220,1.616086,13.376405,1.233014,0.098058,1.488326,-3.562603,24.296041,57.590618,10.648265
6224,1.498770,13.043611,1.242591,0.039037,1.599974,-3.728743,24.296041,57.590618,10.648265
6227,1.185130,13.204022,1.264138,-0.043433,1.717217,-3.896747,27.145578,59.840252,10.498290
6231,0.301669,13.338098,1.575385,-0.121240,1.819539,-4.071014,27.145578,59.840252,10.498290
6234,-0.847547,13.153744,1.611298,-0.218366,1.891351,-4.184527,27.145578,59.840252,10.498290
6238,-1.558625,12.916718,1.836353,-0.311495,1.957966,-4.284850,27.745480,59.240349,9.448461
6241,-1.740585,13.426683,1.984793,-0.397562,1.999934,-4.365721,27.745480,59.240349,9.448461
6245,-1.929727,13.759478,2.638410,-0.490025,2.044034,-4.365721,27.745480,59.240349,9.448461
6248,-1.833959,13.764266,3.124433,-0.588882,2.083603,-4.365721,29.545187,58.940399,10.798241
6252,-2.018312,13.524845,3.507505,-0.680279,2.121041,-4.365721,29.545187,58.940399,10.798241
6255,-2.501941,13.113043,3.679888,-0.770609,2.148487,-4.365721,29.545187,58.940399,10.798241
6259,-2.999935,12.701240,3.732560,-0.855611,2.163675,-4.314161,31.944796,57.590618,10.648265
6515,-6.856994,1.826776,-0.627281,-1.936383,-0.053692,0.118842,61.040054,32.994625,16.497313
6519,-6.773197,1.721431,-0.454898,-1.935850,-0.058222,0.182660,61.789932,33.744503,17.547142
6523,-6.933608,1.592144,-0.383072,-1.934251,-0.047297,0.269660,61.789932,33.744503,17.547142
6527,-7.146692,1.371878,-0.330400,-1.933452,-0.041701,0.349066,60.890079,34.794331,16.197361
6530,-7.218518,1.146823,-0.256180,-1.940380,-0.034507,0.421810,60.890079,34.794331,16.197361
6534,-7.249643,1.007959,-0.177171,-1.933185,-0.018119,0.497352,60.890079,34.794331,16.197361
6538,-7.153875,0.830788,-0.110133,-1.926124,0.002531,0.541319,59.840252,34.644356,17.997068
6542,-7.077260,0.550666,-0.045490,-1.908937,0.037305,0.576492,59.840252,34.644356,17.997068
6546,-7.206547,0.375890,-0.081403,-1.899878,0.061953,0.582753,59.840252,34.644356,17.997068
6550,-7.390901,0.131681,-0.004788,-1.875363,0.100723,0.565167,60.290180,34.194431,17.997068
6553,-7.436390,-0.002394,-0.062249,-1.845519,0.136296,0.524398,60.290180,34.194431,17.997068
6557,-7.264008,-0.165200,0.158017,-1.815409,0.174400,0.460181,59.540302,33.444553,18.746946
6561,-7.225701,-0.368707,0.248997,-1.774640,0.223296,0.361456,59.540302,33.444553,18.746946
6565,-7.393295,-0.632069,0.258574,-1.739734,0.266063,0.269527,59.540302,33.444553,18.746946
6569,-7.596802,-0.768539,0.225055,-1.703361,0.298305,0.166139,60.290180,34.194431,17.997068
6756,-9.840169,0.122104,4.168305,-1.103688,0.364920,0.591547,61.789932,31.794821,18.746946
6760,-9.698911,0.086191,4.271256,-1.048130,0.389701,0.611931,62.539810,31.794821,18.746946
6764,-9.641450,0.095768,4.297592,-0.993372,0.415948,0.641375,62.539810,31.794821,18.746946
6768,-9.674969,0.071826,4.398149,-0.919828,0.448057,0.674550,61.639957,31.644844,20.396677
6772,-9.737218,0.093374,4.376601,-0.871865,0.477368,0.701463,61.639957,31.644844,20.396677
6776,-9.713276,0.035913,4.326323,-0.805250,0.501616,0.725444,61.639957,31.644844,20.396677
6780,-9.734824,-0.146046,4.254497,-0.741965,0.534124,0.742498,63.139713,31.944796,19.196873
6784,-9.586384,-0.174777,4.292804,-0.686807,0.560637,0.750092,63.139713,31.944796,19.196873
6788,-9.382876,-0.313640,4.276044,-0.633115,0.587150,0.748893,63.139713,31.944796,19.196873
6791,-9.150639,-0.296881,4.321534,-0.565833,0.623789,0.738101,61.489983,32.994625,19.796776
6795,-9.052477,-0.387861,4.316746,-0.510409,0.663092,0.714386,61.489983,32.994625,19.796776
6799,-9.093178,-0.383072,4.407725,-0.444193,0.713187,0.679613,61.939911,31.944796,20.396677
6803,-9.287108,-0.395043,4.419696,-0.395564,0.742364,0.648836,61.939911,31.944796,20.396677
6807,-9.457097,-0.380678,4.522647,-0.335476,0.780069,0.605802,61.939911,31.944796,20.396677
6810,-9.706094,-0.466869,4.620809,-0.281784,0.804184,0.562103,61.939911,31.944796,20.396677
6888,-9.813833,0.296881,3.967192,0.421810,0.753289,-0.043567,61.190033,32.844650,16.197361
6892,-9.852140,0.426168,3.967192,0.433534,0.745562,-0.039570,61.190033,32.844650,16.197361
6895,-9.979033,0.538695,3.907337,0.440063,0.729841,-0.035440,61.190033,32.844650,16.197361
6899,-10.031705,0.598550,3.878607,0.443926,0.725711,-0.028645,60.890079,34.044453,15.897410
6902,-10.101137,0.560243,3.825934,0.449522,0.708923,-0.019052,60.890079,34.044453,15.897410
6906,-10.220847,0.402226,3.718195,0.457783,0.694934,-0.009859,60.890079,34.044453,15.897410
6909,-10.242394,0.330400,3.780444,0.462579,0.672285,0.015588,61.939911,34.044453,16.647287
6913,-10.271125,0.325611,3.596091,0.470573,0.651900,0.040902,61.939911,34.044453,16.647287
6916,-10.254366,0.265756,3.478775,0.482697,0.632182,0.065283,61.939911,34.044453,16.647287
6920,-10.266336,0.174777,3.404555,0.494288,0.617394,0.088732,60.890079,33.144600,15.447483
6923,-10.292673,0.282516,3.330335,0.507345,0.594478,0.116711,60.890079,33.144600,15.447483
6927,-10.228029,0.263362,3.189077,0.517737,0.571562,0.144822,60.890079,33.144600,15.447483
6930,-10.220847,0.263362,3.086126,0.529328,0.555041,0.169070,62.239861,33.444553,16.497313
6934,-10.204087,0.256180,2.980781,0.542251,0.537988,0.187057,62.239861,33.444553,16.497313
6938,-10.149021,0.407014,2.827552,0.551444,0.516671,0.195450,62.239861,33.444553,16.497313
7032,-9.131485,1.288081,1.247379,0.412217,-0.221430,0.319489,60.890079,34.044453,13.647777
7036,-9.078813,1.221043,1.165976,0.409020,-0.228891,0.319622,60.890079,34.044453,13.647777
7039,-8.959103,1.063026,1.012747,0.419678,-0.238884,0.325217,60.890079,34.044453,13.647777
7043,-8.892065,0.857124,0.960075,0.432735,-0.242747,0.323752,60.890079,34.044453,13.647777
7046,-8.815451,0.749385,0.778116,0.453652,-0.239550,0.314159,60.890079,34.044453,13.647777
7050,-8.659827,0.605733,0.634463,0.473504,-0.244746,0.313626,60.590130,34.194431,11.248168
7053,-8.566454,0.407014,0.471658,0.500017,-0.243280,0.314159,60.590130,34.194431,11.248168
7057,-8.511387,0.289698,0.399832,0.533191,-0.235686,0.316691,60.590130,34.194431,11.248168
7060,-8.470686,0.102951,0.272939,0.566899,-0.232622,0.328815,60.140202,34.044453,12.447972
7064,-8.619126,-0.090980,0.148441,0.610066,-0.230090,0.333478,60.140202,34.044453,12.447972
7067,-8.760384,-0.208296,0.055067,0.657096,-0.227159,0.330147,60.140202,34.044453,12.447972
7071,-8.916007,-0.416591,-0.215478,0.718782,-0.215835,0.306032,61.190033,34.794331,13.647777
7074,-9.074024,-0.593762,-0.347159,0.762882,-0.220231,0.274989,61.190033,34.794331,13.647777
7078,-9.176975,-0.816423,-0.548272,0.826167,-0.221830,0.233021,61.190033,34.794331,13.647777
7081,-9.339781,-1.015141,-0.670376,0.889452,-0.225161,0.183060,61.489983,33.444553,13.047874
7191,-9.306262,0.986411,-3.627216,0.397828,-0.252873,-0.470306,62.689789,28.795309,14.397655
7194,-9.334992,0.914585,-3.655946,0.367052,-0.213037,-0.446858,62.689789,28.795309,14.397655
7198,-9.267955,0.682347,-3.773262,0.327349,-0.172934,-0.424741,62.689789,28.795309,14.397655
7201,-9.167398,0.574608,-3.833117,0.299237,-0.130034,-0.408753,61.639957,29.695162,13.947728
7205,-9.085996,0.426168,-3.964798,0.267129,-0.084735,-0.401692,61.639957,29.695162,13.947728
7209,-9.050082,0.308852,-4.096479,0.244479,-0.044499,-0.396763,61.639957,29.695162,13.947728
7212,-9.102755,0.404620,-4.185065,0.219299,0.004130,-0.400760,61.639957,29.695162,13.947728
7216,-9.155427,0.466869,-4.213795,0.189855,0.036372,-0.411685,61.639957,29.695162,13.947728
7219,-9.325416,0.474052,-4.185065,0.155214,0.071945,-0.421144,61.639957,27.745480,13.197850
7223,-9.375694,0.478840,-4.146757,0.121107,0.108051,-0.427273,61.639957,27.745480,13.197850
7226,-9.481039,0.390255,-4.065354,0.082603,0.140692,-0.445925,61.639957,27.745480,13.197850
7230,-9.440337,0.229843,-4.000711,0.049029,0.173067,-0.462579,61.639957,27.745480,13.197850
7233,-9.435549,0.141258,-3.957615,0.012923,0.199447,-0.480698,61.639957,27.745480,13.197850
7236,-9.397242,0.069432,-3.842694,-0.020917,0.227959,-0.492556,61.639957,27.745480,13.197850
7240,-9.320627,0.016759,-3.873818,-0.056224,0.261533,-0.502149,61.639957,28.045431,12.447972
7348,-11.705252,1.297657,-0.656011,-1.665657,-0.623922,-0.095394,62.389835,26.845627,12.447972
7352,-11.494562,1.249773,-0.617704,-1.756387,-0.629784,-0.066216,62.539810,27.145578,14.247679
7355,-11.216835,1.144428,-0.486023,-1.836459,-0.635780,-0.011058,62.539810,27.145578,14.247679
7359,-10.998962,1.029507,-0.251391,-1.912801,-0.630450,0.047963,62.539810,27.145578,14.247679
7362,-10.587160,0.622492,-0.105345,-1.978617,-0.620458,0.128568,62.539810,27.145578,14.247679
7366,-10.278308,0.727837,0.043096,-2.045233,-0.597409,0.211038,62.539810,27.145578,14.247679
7369,-10.062830,0.598550,0.234632,-2.104787,-0.563035,0.303501,62.539810,27.145578,13.497801
7373,-9.593566,0.639252,0.265756,-2.155815,-0.524398,0.388502,62.539810,27.145578,13.497801
7376,-9.543288,0.792481,0.284910,-2.206309,-0.474037,0.465776,62.539810,27.145578,13.497801
7380,-9.682152,0.754174,0.246603,-2.256937,-0.419279,0.535723,62.539810,27.145578,13.497801
7383,-9.914390,0.617704,0.217872,-2.303435,-0.367985,0.604204,62.539810,27.145578,13.497801
7387,-10.017340,0.167594,0.023942,-2.343005,-0.318689,0.667489,62.539810,27.145578,13.497801
7390,-10.096349,-0.313640,0.059855,-2.364188,-0.275789,0.720381,62.239861,29.095261,13.797752
7394,-10.062830,-0.670376,0.050278,-2.378711,-0.223962,0.769277,62.239861,29.095261,13.797752
7398,-10.098742,-0.919373,0.047884,-2.380309,-0.176132,0.821770,62.239861,29.095261,13.797752
7485,-10.211270,-1.146823,1.237802,-2.168205,0.120441,0.135763,63.139713,31.944796,16.947239
7488,-10.263943,-1.017536,1.400608,-2.159412,0.097392,0.146155,63.139713,31.944796,16.947239
7492,-10.436325,-0.840365,1.632846,-2.163542,0.078074,0.159478,63.739616,31.494869,17.247190
7496,-10.424355,-0.653617,1.709460,-2.164341,0.053426,0.162675,63.739616,31.494869,17.247190
7499,-10.441113,-0.488417,1.912967,-2.174201,0.021983,0.175066,63.739616,31.494869,17.247190
7503,-10.457873,-0.476446,2.054225,-2.184726,-0.009593,0.183060,62.539810,31.494869,17.997068
7506,-10.601525,-0.313640,2.130840,-2.199381,-0.042900,0.194917,62.539810,31.494869,17.997068
7510,-10.630256,-0.320823,2.319981,-2.214969,-0.082337,0.217833,62.539810,31.494869,17.997068
7513,-10.515334,-0.395043,2.422932,-2.238818,-0.118176,0.243280,61.639957,31.944796,18.147043
7517,-10.304645,-0.416591,2.576161,-2.257204,-0.154681,0.271259,61.639957,31.944796,18.147043
7520,-10.165780,-0.416591,2.693477,-2.282917,-0.198914,0.296306,63.739616,32.544697,17.997068
7524,-9.940725,-0.366313,2.820370,-2.306100,-0.219698,0.324418,63.739616,32.544697,17.997068
7528,-9.689334,-0.304064,2.952051,-2.325018,-0.241548,0.352397,63.739616,32.544697,17.997068
7531,-9.402030,-0.126893,3.189077,-2.352464,-0.257136,0.375446,63.739616,32.544697,17.997068
7535,-9.188946,-0.016759,3.318364,-2.372582,-0.266729,0.399694,63.739616,32.544697,17.997068
7586,-7.728483,-1.929727,3.301604,-2.167273,-0.198515,1.142191,63.139713,34.044453,19.946751
7589,-7.764396,-2.159570,3.371036,-2.094395,-0.189455,1.182028,63.139713,34.044453,19.946751
7593,-7.778761,-2.413355,3.430891,-2.016855,-0.170270,1.218666,62.239861,33.444553,21.296530
7596,-7.817069,-2.614468,3.404555,-1.924259,-0.162942,1.234654,62.239861,33.444553,21.296530
7600,-7.836222,-2.698265,3.428497,-1.804084,-0.141358,1.236386,62.239861,33.444553,21.296530
7603,-7.872135,-2.782062,3.495534,-1.706825,-0.128568,1.223596,61.639957,34.044453,21.146555
7607,-7.987057,-2.837129,3.608062,-1.608501,-0.121640,1.185758,61.639957,34.044453,21.146555
7610,-8.020576,-2.782062,3.782839,-1.508044,-0.110449,1.131933,61.190033,34.344406,21.446507
7614,-8.070854,-2.762909,4.062960,-1.411851,-0.108717,1.073844,61.190033,34.344406,21.446507
7618,-8.109161,-2.616863,4.228160,-1.319922,-0.097259,0.992040,61.190033,34.344406,21.446507
7621,-8.178593,-2.336741,4.496311,-1.235187,-0.087133,0.895314,62.239861,36.594040,20.996580
7625,-8.176199,-2.066196,4.771644,-1.157646,-0.085268,0.794458,62.239861,36.594040,20.996580
7628,-8.149862,-1.862689,4.917690,-1.085568,-0.070080,0.688406,62.239861,36.594040,20.996580
7632,-8.152257,-1.596933,5.092467,-1.016954,-0.067548,0.583553,61.639957,35.094284,22.946262
7636,-8.034941,-1.434127,5.183447,-0.957799,-0.054092,0.479632,61.639957,35.094284,22.946262
7685,-6.725313,-2.200271,4.994305,-0.145489,0.271392,0.310695,61.789932,36.594040,22.796286
7688,-6.821081,-2.329558,4.987122,-0.057423,0.297772,0.329081,61.789932,36.594040,22.796286
7692,-6.957550,-2.343924,4.910508,0.031842,0.320821,0.340806,61.639957,35.094284,21.896433
7695,-7.082048,-2.346318,4.896142,0.131766,0.339207,0.326417,61.639957,35.094284,21.896433
7699,-7.151481,-2.367866,4.716578,0.224628,0.360524,0.303767,61.639957,35.094284,21.896433
7702,-7.237672,-2.387019,4.716578,0.299637,0.365054,0.263798,61.639957,35.094284,21.896433
7706,-7.283162,-2.480393,4.556166,0.390101,0.372914,0.216767,61.639957,35.094284,21.896433
7709,-7.366959,-2.394202,4.393360,0.469374,0.378110,0.153216,61.639957,35.094284,21.896433
7713,-7.503428,-2.353500,4.393360,0.546515,0.380242,0.087933,61.489983,38.543720,21.296530
7716,-7.639898,-2.310405,4.290410,0.621257,0.376511,0.021051,61.489983,38.543720,21.296530
7720,-7.809886,-2.214637,4.204218,0.686807,0.370916,-0.057289,61.489983,38.543720,21.296530
7724,-8.037335,-2.102109,4.161122,0.747827,0.359724,-0.132165,61.489983,38.543720,21.296530
7727,-8.238448,-2.039860,4.007894,0.804583,0.345602,-0.207974,61.489983,38.543720,21.296530
7731,-8.611943,-2.047042,3.907337,0.856943,0.323752,-0.269527,63.139713,37.493893,22.196384
7735,-8.791509,-1.970428,3.768473,0.908237,0.296040,-0.334277,63.139713,37.493893,22.196384
7795,-9.394848,0.464475,1.970428,0.881325,-0.283916,-0.781268,62.989738,34.944309,20.546654
7798,-9.495404,0.514753,1.929727,0.828432,-0.307098,-0.779136,62.989738,34.944309,20.546654
7802,-9.629479,0.411803,1.841141,0.771809,-0.328548,-0.755155,61.789932,34.944309,20.246702
7805,-9.773131,0.459687,1.601721,0.713187,-0.355328,-0.731173,61.789932,34.944309,20.246702
7809,-9.828198,0.483629,1.422156,0.648703,-0.383306,-0.697466,61.789932,34.944309,20.246702
7812,-9.914390,0.536301,1.319205,0.584485,-0.407688,-0.665890,63.139713,33.594528,19.646799
7816,-9.967062,0.708684,1.180341,0.516538,-0.435266,-0.627386,63.139713,33.594528,19.646799
7819,-9.964667,0.636858,0.984017,0.449922,-0.453652,-0.592080,63.139713,33.594528,19.646799
7823,-9.911995,0.605733,0.871489,0.379576,-0.474170,-0.556107,62.689789,33.594528,20.396677
7826,-9.856929,0.670376,0.711078,0.309629,-0.491090,-0.521734,62.689789,33.594528,20.396677
7830,-9.768343,0.629675,0.584185,0.236086,-0.503881,-0.489225,62.689789,33.594528,20.396677
7833,-9.567230,0.488417,0.474052,0.175066,-0.511874,-0.464977,61.639957,34.344406,20.696629
7837,-9.478644,0.445322,0.356736,0.088199,-0.508277,-0.432868,61.639957,34.344406,20.696629
7840,-9.272743,0.414197,0.308852,0.032908,-0.504680,-0.405689,61.639957,34.344406,20.696629
7844,-9.241618,0.433351,0.222661,-0.029977,-0.492023,-0.374913,62.989738,33.744503,20.546654
7966,-10.158598,0.107739,1.388637,-0.338274,-0.689472,0.157346,62.389835,31.944796,22.646311
7969,-10.086772,0.040701,1.570596,-0.326550,-0.688539,0.184259,62.389835,31.944796,22.646311
7973,-9.904813,-0.160412,1.850718,-0.310695,-0.680146,0.214769,61.489983,32.544697,24.296041
7977,-9.734824,-0.217872,2.087744,-0.291510,-0.667089,0.250208,61.489983,32.544697,24.296041
7980,-9.526528,-0.263362,2.298434,-0.274590,-0.651234,0.274989,61.489983,32.544697,24.296041
7984,-9.315839,-0.301669,2.367866,-0.255404,-0.626453,0.288046,62.689789,31.644844,22.946262
7987,-9.018958,-0.383072,2.432509,-0.243014,-0.600074,0.302568,62.689789,31.644844,22.946262
7991,-8.810662,-0.466869,2.612074,-0.233688,-0.571029,0.312294,62.689789,31.644844,22.946262
7994,-8.528147,-0.555455,2.691083,-0.212904,-0.535856,0.304167,62.389835,33.594528,24.146067
7998,-8.384495,-0.713472,2.825158,-0.198115,-0.508943,0.299904,62.389835,33.594528,24.146067
8001,-8.257602,-0.837971,2.956839,-0.174266,-0.457116,0.286980,62.389835,33.594528,24.146067
8005,-8.159439,-0.823605,3.165135,-0.154548,-0.414482,0.260867,62.389835,31.944796,24.895945
8009,-8.183381,-0.835576,3.275268,-0.140159,-0.380642,0.258868,62.389835,31.944796,24.895945
8012,-8.192958,-0.780510,3.327940,-0.119908,-0.347201,0.236485,62.689789,33.594528,23.696140
8016,-8.236053,-0.682347,3.440468,-0.105386,-0.316291,0.223162,62.689789,33.594528,23.696140
8077,-8.829816,-1.450886,4.082114,0.142291,-0.395830,-0.031576,60.890079,33.594528,25.645823
8081,-9.030929,-1.568202,3.998317,0.194651,-0.415015,-0.051560,60.890079,33.594528,25.645823
8084,-9.222465,-1.503559,3.943250,0.252606,-0.440063,-0.075142,60.890079,33.594528,25.645823
8087,-9.272743,-1.493982,3.876213,0.307231,-0.464178,-0.107917,60.890079,33.594528,25.645823
8091,-9.368511,-1.434127,3.869030,0.358126,-0.485894,-0.142025,60.890079,33.594528,25.645823
8094,-9.366117,-1.426944,3.902549,0.411152,-0.506545,-0.178397,62.689789,34.344406,26.395700
8098,-9.337387,-1.352724,3.919308,0.467908,-0.526130,-0.214769,62.689789,34.344406,26.395700
8101,-9.373300,-1.285686,3.904943,0.520268,-0.538254,-0.256603,62.689789,34.344406,26.395700
8105,-9.291897,-1.268927,3.940856,0.571296,-0.550112,-0.294841,62.689789,34.344406,26.395700
8108,-9.215282,-1.259350,3.888184,0.623123,-0.561303,-0.330680,62.689789,34.344406,26.395700
8112,-9.145850,-1.268927,3.876213,0.674283,-0.565833,-0.367985,61.939911,33.144600,25.195896
8115,-9.131485,-1.276109,3.895366,0.719982,-0.569697,-0.410485,61.939911,33.144600,25.195896
8119,-9.016563,-1.292869,4.007894,0.769943,-0.565167,-0.432868,61.939911,33.144600,25.195896
8122,-8.858546,-1.362301,4.055778,0.821770,-0.550911,-0.461646,62.989738,31.494869,26.245724
8126,-8.755595,-1.405396,4.187459,0.859342,-0.547580,-0.489225,62.989738,31.494869,26.245724
8219,-9.483433,-1.470040,3.737349,1.576525,-0.219965,-1.198149,62.239861,31.794821,25.045919
8222,-9.548077,-1.493982,3.770868,1.597309,-0.262199,-1.206409,62.389835,30.445040,25.945774
8226,-9.720459,-1.541866,3.727772,1.614363,-0.318156,-1.206942,62.389835,30.445040,25.945774
8229,-9.780313,-1.486799,3.701436,1.626087,-0.376245,-1.195351,62.389835,30.445040,25.945774
8232,-9.866506,-1.436521,3.660734,1.637945,-0.439530,-1.185625,62.389835,30.445040,25.945774
8236,-9.873688,-1.369483,3.569755,1.649136,-0.501749,-1.175499,62.389835,30.445040,25.945774
8239,-9.991004,-1.288081,3.378219,1.660061,-0.559971,-1.164041,62.389835,30.445040,25.945774
8243,-10.043676,-1.228225,3.186682,1.661260,-0.625787,-1.154315,63.589642,29.695162,25.195896
8246,-10.079589,-1.175553,3.107674,1.670720,-0.688672,-1.145789,63.589642,29.695162,25.195896
8250,-10.165780,-1.228225,3.043030,1.683643,-0.748360,-1.136596,63.589642,29.695162,25.195896
8253,-10.153810,-1.285686,2.947262,1.694968,-0.810712,-1.136063,63.589642,29.695162,25.195896
8257,-10.096349,-1.271321,2.928109,1.701896,-0.873064,-1.132732,63.589642,29.695162,25.195896
8261,-9.962274,-1.213860,2.767697,1.707092,-0.921427,-1.147254,63.589642,29.695162,25.195896
8264,-10.012551,-1.323994,2.722207,1.714686,-0.974720,-1.144590,63.589642,28.045431,25.945774
8268,-10.125079,-1.438915,2.719813,1.714286,-1.024548,-1.145256,63.589642,28.045431,25.945774
8439,-9.969456,-1.173159,2.952051,-0.036372,0.063418,0.648170,60.140202,26.845627,31.644844
8443,-9.873688,-1.170765,3.055001,-0.045165,0.140959,0.692270,60.140202,26.845627,31.644844
8447,-9.962274,-1.165976,3.126827,-0.050495,0.201046,0.706392,60.140202,26.845627,31.644844
8451,-9.856929,-1.130063,3.160346,-0.053159,0.273391,0.723446,60.140202,26.845627,31.644844
8454,-9.801862,-1.060631,3.229778,-0.056357,0.326550,0.727309,60.440155,24.595993,31.194918
8458,-9.718064,-1.027112,3.215413,-0.050495,0.386237,0.726377,60.440155,24.595993,31.194918
8462,-9.600749,-0.861913,3.198653,-0.046764,0.432202,0.729308,60.440155,24.595993,31.194918
8466,-9.627085,-0.761356,3.229778,-0.045965,0.479899,0.723046,60.440155,24.595993,31.194918
8470,-9.536105,-0.634463,3.205836,-0.043433,0.515472,0.719315,60.440155,24.595993,31.194918
8474,-9.595961,-0.591368,3.196259,-0.037571,0.546115,0.725311,61.939911,24.595993,30.145090
8478,-9.538500,-0.423774,3.213019,-0.029444,0.566233,0.726643,61.939911,24.595993,30.145090
8482,-9.512163,-0.387861,3.253720,-0.022116,0.581821,0.734504,61.939911,24.595993,30.145090
8485,-9.562442,-0.320823,3.366248,-0.010525,0.590348,0.747294,61.489983,26.695652,31.494869
8489,-9.703699,-0.351948,3.421314,-0.005462,0.590481,0.749959,61.489983,26.695652,31.494869
8493,-9.686940,-0.404620,3.426103,0.011058,0.582620,0.759951,61.939911,27.295553,31.494869
8568,-8.690952,-1.515530,4.489128,0.698132,-0.178663,-0.598075,61.040054,28.345383,30.744991
8572,-8.652645,-1.608904,4.580108,0.720115,-0.206775,-0.688939,61.040054,28.345383,30.744991
8575,-8.453926,-1.649605,4.699818,0.743564,-0.230490,-0.757553,61.040054,28.345383,30.744991
8579,-8.339005,-1.788469,4.714183,0.766746,-0.253939,-0.829364,61.040054,28.345383,30.744991
8582,-8.291121,-1.697489,4.776433,0.786997,-0.274590,-0.882524,61.040054,28.345383,30.744991
8586,-8.264784,-1.699883,4.912902,0.807248,-0.297905,-0.917031,61.789932,27.145578,28.495358
8589,-8.188169,-1.594538,4.891354,0.821237,-0.318956,-0.953669,61.789932,27.145578,28.495358
8593,-8.078036,-1.611298,4.874595,0.833361,-0.340539,-0.983913,61.789932,27.145578,28.495358
8596,-7.936779,-1.398214,4.905719,0.841222,-0.363855,-1.005763,61.789932,27.145578,28.495358
8600,-7.884106,-1.323994,5.011064,0.840289,-0.389701,-1.025481,61.789932,27.145578,28.495358
8603,-7.771579,-1.326388,5.193024,0.843487,-0.413683,-1.030277,61.939911,27.145578,28.495358
8607,-7.680599,-1.340753,5.276821,0.845885,-0.439130,-1.032942,61.939911,26.095749,28.945284
8611,-7.630321,-1.094150,5.451597,0.837758,-0.468041,-1.022949,61.939911,26.095749,28.945284
8614,-8.726865,-1.424550,5.355829,0.830830,-0.499217,-1.006029,61.939911,26.095749,28.945284
8618,-8.327033,-1.142034,5.341464,0.823369,-0.550645,-0.986844,61.939911,26.095749,28.945284
8831,-9.768343,-0.086191,4.230555,0.122306,0.327749,-0.328548,61.190033,27.295553,29.695162
8835,-9.667787,-0.112527,4.242526,0.157879,0.283916,-0.361989,60.890079,27.745480,30.894966
8839,-9.495404,-0.107739,4.297592,0.185058,0.260867,-0.380242,60.890079,27.745480,30.894966
8843,-9.411607,-0.057461,4.209007,0.216101,0.221830,-0.412484,60.890079,27.745480,30.894966
8847,-9.253590,-0.083797,4.209007,0.243813,0.191853,-0.429538,62.389835,26.845627,32.394722
8851,-9.141062,-0.117316,4.331111,0.269793,0.176931,-0.436732,62.389835,26.845627,32.394722
8854,-9.023746,-0.167594,4.326323,0.295907,0.156014,-0.436199,61.489983,27.145578,32.394722
8858,-8.944737,-0.292093,4.443638,0.317890,0.144023,-0.431669,61.489983,27.145578,31.494869
8861,-8.774749,-0.248997,4.493917,0.335343,0.128302,-0.426340,61.489983,27.145578,31.494869
8865,-8.810662,-0.177171,4.522647,0.358658,0.122839,-0.410352,61.489983,25.495846,31.494869
8868,-8.743625,-0.177171,4.632780,0.379842,0.114979,-0.390767,61.489983,25.495846,31.494869
8872,-8.722076,-0.217872,4.675876,0.397429,0.107917,-0.372648,61.489983,25.495846,31.494869
8875,-8.765172,-0.213084,4.718972,0.406622,0.112314,-0.351198,62.239861,26.245724,31.044943
8879,-8.681376,-0.201113,4.730943,0.420877,0.106319,-0.329747,62.239861,26.245724,31.044943
8882,-8.724471,-0.217872,4.683059,0.431136,0.101256,-0.309896,62.239861,26.245724,31.044943
8933,-8.487445,-0.916979,4.989516,0.573294,0.174799,-0.223029,62.539810,25.495846,30.744991
8937,-8.532935,-0.842759,5.058948,0.581688,0.189455,-0.241282,62.539810,25.495846,30.744991
8940,-8.461109,-0.782904,5.128380,0.585285,0.206375,-0.260734,62.539810,25.495846,30.744991
8944,-8.367735,-0.675165,5.219360,0.581554,0.212237,-0.286314,62.539810,25.495846,30.744991
8948,-8.451532,-0.536301,5.269638,0.579556,0.229291,-0.315225,61.789932,25.495846,31.044943
8951,-8.511387,-0.390255,5.262455,0.571162,0.237685,-0.348266,61.789932,25.495846,31.044943
8954,-8.520964,-0.272939,5.391742,0.558772,0.254738,-0.373314,61.789932,25.495846,31.044943
8958,-8.561666,-0.158017,5.339070,0.545315,0.259002,-0.411551,61.789932,25.495846,31.044943
8961,-8.568848,-0.100556,5.286397,0.530394,0.263398,-0.437931,61.789932,25.495846,31.044943
8965,-8.537724,-0.124498,5.288792,0.505879,0.263665,-0.458182,62.389835,25.645823,29.695162
8969,-8.508993,-0.136469,5.231331,0.478966,0.268194,-0.466709,62.389835,25.645823,29.695162
8973,-8.482656,-0.234632,5.171476,0.463911,0.269926,-0.472971,62.389835,25.645823,29.695162
8976,-8.226477,-0.313640,5.236119,0.443926,0.275389,-0.461779,62.389835,25.645823,29.695162
8980,-8.243237,-0.435745,5.279215,0.426473,0.274456,-0.438730,62.389835,25.645823,29.695162
8984,-8.058883,-0.486023,5.288792,0.408087,0.282450,-0.423276,62.389835,25.645823,29.695162
9173,-10.014946,-0.639252,5.293580,2.724579,1.302868,-1.494455,63.589642,26.545675,24.146067
9176,-10.381259,-0.306458,5.245696,2.744430,1.248776,-1.559472,63.589642,24.895945,22.946262
9178,-10.656591,-0.050278,5.200206,2.759885,1.193485,-1.624089,63.589642,24.895945,22.946262
9181,-10.817003,0.122104,5.212177,2.766413,1.155115,-1.666989,63.589642,24.895945,22.946262
9183,-11.183316,0.275333,5.087678,2.779470,1.090897,-1.721881,63.589642,24.895945,22.946262
9186,-11.295844,0.397437,5.085284,2.788796,1.030144,-1.761717,63.589642,24.895945,22.946262
9188,-11.343728,0.517148,5.061342,2.801453,0.963262,-1.804084,63.589642,24.895945,22.946262
9191,-11.552023,0.627281,5.087678,2.809314,0.918496,-1.825002,63.589642,24.895945,22.946262
9193,-11.695675,0.735020,4.960786,2.822504,0.858542,-1.845785,63.589642,24.895945,22.946262
9195,-11.815386,0.883460,4.948815,2.833562,0.792060,-1.863106,64.489494,23.996090,22.496336
9198,-11.961432,1.185130,4.948815,2.844487,0.735170,-1.866170,64.489494,23.996090,22.496336
9200,-12.021287,1.417367,4.944026,2.854746,0.677081,-1.859508,64.489494,23.996090,22.496336
9203,-11.947066,1.568202,5.011064,2.858210,0.643374,-1.858576,64.489494,23.996090,22.496336
9205,-11.681310,1.455675,5.080496,2.878328,0.598475,-1.851381,62.989738,22.046408,23.246214
9207,-11.523293,1.367089,5.147533,2.895115,0.563701,-1.841922,62.989738,22.046408,23.246214
9340,-10.896012,-2.918532,2.896984,3.407522,3.929389,-2.191654,63.739616,14.097703,13.047874
9342,-10.886436,-3.038242,2.738967,3.375413,3.960299,-2.134498,63.739616,14.097703,13.047874
9344,-10.821792,-3.189077,2.640805,3.353564,3.972689,-2.095727,63.739616,14.097703,13.047874
9347,-10.632649,-3.344700,2.482787,3.321721,4.000401,-2.028579,61.939911,9.148510,10.948216
9349,-10.656591,-3.359065,2.382231,3.294542,4.022518,-1.960631,61.939911,9.148510,10.948216
9352,-10.579977,-3.462016,2.161964,3.273891,4.050629,-1.886554,61.939911,9.148510,10.948216
9354,-10.515334,-3.447650,2.008735,3.259236,4.061021,-1.835927,61.939911,9.148510,10.948216
9356,-10.462662,-3.342306,1.857901,3.239384,4.079674,-1.763848,61.939911,9.148510,10.948216
9359,-10.256760,-3.351882,1.697489,3.231923,4.096461,-1.683244,61.939911,9.148510,10.948216
9361,-10.165780,-3.473987,1.572991,3.215536,4.114847,-1.608368,61.939911,9.148510,10.948216
9364,-10.084377,-3.469198,1.522712,3.208208,4.130701,-1.556141,61.939911,9.148510,10.948216
9366,-10.125079,-3.536236,1.450886,3.200481,4.143891,-1.478067,60.890079,8.398632,8.698583
9368,-10.074800,-3.493140,1.376666,3.185559,4.158280,-1.403458,60.890079,8.398632,8.698583
9371,-10.101137,-3.600879,1.240196,3.187025,4.168673,-1.328982,60.890079,8.398632,8.698583
9373,-10.158598,-3.787627,1.103727,3.186625,4.173735,-1.283816,60.890079,8.398632,8.698583
9530,-6.311116,-3.320758,-4.644751,3.855845,1.808881,0.041568,53.691254,-5.099169,-1.499756
9532,-6.244078,-3.150769,-4.623203,3.810547,1.768645,0.076075,53.691254,-5.099169,-1.499756
9534,-6.289568,-3.222595,-4.520253,3.763516,1.720282,0.122440,53.691254,-5.099169,-1.499756
9537,-6.426037,-3.162740,-4.402937,3.730208,1.689638,0.151084,50.841717,-5.999022,-0.449927
9539,-6.493075,-2.806004,-4.371812,3.666924,1.637412,0.205176,50.841717,-5.999022,-0.449927
9542,-6.521805,-2.806004,-4.388572,3.600708,1.592247,0.262732,50.841717,-5.999022,-0.449927
9544,-6.596025,-2.815581,-4.393360,3.529029,1.534957,0.328015,50.841717,-5.999022,-0.449927
9546,-6.663064,-2.846706,-4.357447,3.477335,1.498185,0.364521,50.841717,-5.999022,-0.449927
9549,-6.610391,-3.016694,-4.386178,3.397796,1.446092,0.431936,50.841717,-5.999022,-0.449927
9551,-6.545747,-3.093309,-4.469975,3.315992,1.393199,0.498818,50.841717,-5.999022,-0.449927
9554,-6.540959,-3.203442,-4.548983,3.237252,1.336443,0.571828,50.841717,-5.999022,-0.449927
9556,-6.375759,-3.502717,-4.484340,3.178631,1.299271,0.624988,50.841717,-5.999022,-0.449927
9558,-6.366182,-3.696647,-4.568137,3.103355,1.243447,0.707458,51.441620,-7.798729,0.299951
9561,-6.148310,-3.904943,-4.556166,3.019819,1.195884,0.794191,51.441620,-7.798729,0.299951
9563,-5.851429,-4.237737,-4.544195,2.941879,1.145655,0.878260,51.441620,-7.798729,0.299951
9749,-8.396465,-2.176329,-7.000646,-4.365721,-1.649003,0.675616,59.840252,11.398143,0.000000
9753,-8.437167,-1.635240,-7.082048,-4.365721,-1.737469,0.479766,59.840252,11.398143,0.000000
9757,-8.449138,-0.940921,-7.079654,-4.365721,-1.818074,0.334677,59.840252,11.398143,0.000000
9761,-8.236053,-0.359130,-7.077260,-4.365721,-1.912534,0.186124,60.140202,13.047874,0.149976
9765,-7.920019,0.383072,-7.194576,-4.365721,-1.980083,0.095260,60.140202,13.047874,0.149976
9768,-7.601591,0.536301,-7.264008,-4.365721,-2.055758,0.029844,61.939911,13.047874,1.649731
9772,-7.280767,0.641646,-7.321469,-4.365721,-2.103455,0.021850,61.939911,13.047874,1.649731
9776,-6.979098,0.203507,-6.971915,-4.365721,-2.143558,0.061420,61.939911,13.047874,1.649731
9780,-6.864176,-0.742203,-7.007828,-4.365721,-2.178198,0.164940,61.190033,15.897410,2.699560
9784,-6.775591,-0.596156,-6.684611,-4.365721,-2.191787,0.306032,61.190033,15.897410,2.699560
9788,-6.998251,-0.984017,-6.466739,-4.365721,-2.204044,0.515605,60.290180,15.297508,2.549585
9792,-7.424419,-1.194707,-6.062119,-4.365721,-2.208308,0.710123,60.290180,15.297508,2.549585
9796,-7.773973,-1.776498,-5.896919,-4.365721,-2.209507,0.957266,60.290180,15.297508,2.549585
9800,-8.331821,-2.138022,-5.784391,-4.365721,-2.211639,1.157913,61.489983,17.247190,3.749389
9804,-8.793902,-2.379837,-5.623980,-4.365721,-2.209374,1.415182,61.489983,17.247190,3.749389
9886,-8.063671,-2.401384,1.098939,-4.365721,-1.054259,-0.056757,62.689789,28.495358,11.398143
9890,-7.979874,-2.889802,1.403002,-4.365721,-0.988176,-0.013856,62.689789,28.495358,11.398143
9893,-8.094796,-3.251326,1.697489,-4.365721,-0.926490,0.061420,62.689789,28.495358,11.398143
9897,-8.238448,-3.404555,2.020706,-4.365721,-0.866802,0.150951,62.689789,28.495358,11.398143
9900,-8.485051,-3.584120,2.308010,-4.365721,-0.810046,0.264730,63.139713,28.495358,14.397655
9904,-8.667010,-3.646369,2.554613,-4.365721,-0.760484,0.379576,63.139713,28.495358,14.397655
9907,-8.999804,-3.620033,2.920926,-4.365721,-0.709723,0.495354,62.689789,27.295553,15.147532
9911,-9.313444,-3.641581,3.253720,-4.365721,-0.672551,0.606202,62.689789,27.295553,15.147532
9914,-9.617508,-3.579332,3.696647,-4.365721,-0.641109,0.702662,62.689789,27.295553,15.147532
9918,-9.950302,-3.248932,4.352659,-4.365721,-0.612464,0.777138,63.289688,28.345383,15.297508
9922,-10.333375,-3.021482,4.809951,-4.365721,-0.597142,0.816841,63.289688,28.345383,15.297508
9925,-10.488997,-2.755726,5.178658,-4.365721,-0.583819,0.822836,63.289688,28.345383,15.297508
9929,-10.694899,-2.327164,5.571307,-4.365721,-0.576092,0.788329,62.989738,28.345383,14.997557
9932,-11.192893,-1.810017,6.100426,-4.352132,-0.583553,0.721047,62.989738,28.345383,14.997557
9936,-11.559206,-1.386243,6.402095,-4.289380,-0.605403,0.582487,62.989738,28.345383,14.997557
10050,-9.931149,-2.631228,5.650316,-1.658862,-1.334844,0.487626,61.939911,27.745480,24.895945
10053,-9.665392,-2.463634,5.734113,-1.510043,-1.324452,0.325084,61.939911,27.745480,24.895945
10057,-9.595961,-2.188300,5.798757,-1.403857,-1.306998,0.177331,61.939911,27.745480,24.895945
10060,-9.490616,-1.965640,5.966351,-1.304201,-1.293675,0.040902,63.739616,27.895456,26.245724
10064,-9.380483,-1.771709,5.911284,-1.216801,-1.269161,-0.083003,63.739616,27.895456,26.245724
10068,-9.220071,-1.508347,5.872977,-1.126870,-1.241848,-0.188655,63.739616,27.895456,26.245724
10071,-9.179369,-1.601721,5.844246,-1.049995,-1.215202,-0.280585,62.389835,27.745480,24.895945
10075,-9.167398,-1.340753,5.805939,-0.976718,-1.188289,-0.341205,62.389835,27.745480,24.895945
10078,-8.810662,-1.312023,5.734113,-0.902642,-1.153649,-0.383706,62.389835,26.545675,24.895945
10082,-8.370130,-1.436521,5.810728,-0.830564,-1.109816,-0.394498,62.389835,26.545675,24.895945
10085,-8.228871,-1.367089,5.916072,-0.766613,-1.059855,-0.393965,62.389835,26.545675,24.895945
10089,-8.070854,-1.359907,5.949591,-0.698665,-1.005896,-0.372381,62.689789,28.045431,26.695652
10092,-7.826645,-1.283292,5.992687,-0.644706,-0.952737,-0.332678,62.689789,28.045431,26.695652
10096,-7.572860,-1.221043,5.901707,-0.572495,-0.867469,-0.259268,62.689789,28.045431,26.695652
10100,-7.505822,-1.077391,5.949591,-0.519735,-0.792726,-0.188789,61.939911,26.095749,26.395700
10193,-9.212888,-1.505953,4.867412,0.410485,0.411551,-0.339606,61.789932,29.395212,28.045431
10197,-9.145850,-1.458069,4.800375,0.418213,0.433534,-0.454185,61.789932,29.395212,28.045431
10200,-8.995016,-1.436521,4.769250,0.426207,0.450721,-0.567965,61.190033,28.495358,26.695652
10204,-8.813056,-1.374272,4.707001,0.429671,0.476968,-0.667888,61.190033,28.495358,26.695652
10207,-8.729259,-1.379060,4.692636,0.431669,0.504813,-0.767412,61.190033,28.495358,26.695652
10211,-8.599973,-1.359907,4.601655,0.425274,0.530527,-0.847884,61.190033,28.495358,26.695652
10215,-8.564059,-1.381454,4.668694,0.424741,0.551977,-0.912234,61.190033,28.495358,26.695652
10218,-8.489840,-1.314417,4.635174,0.424741,0.576358,-0.966193,61.190033,28.495358,26.695652
10222,-8.518570,-1.240196,4.553771,0.418613,0.600074,-1.005363,61.489983,27.895456,25.045919
10225,-8.671799,-1.307234,4.525041,0.412484,0.619925,-1.033208,61.489983,27.895456,25.045919
10229,-8.872911,-1.278504,4.467580,0.390634,0.639643,-1.054259,62.989738,27.445528,26.545675
10233,-9.126697,-1.302446,4.426879,0.376645,0.648303,-1.054659,62.989738,27.445528,26.545675
10236,-9.373300,-1.113304,4.350265,0.366652,0.649769,-1.055991,62.989738,27.445528,26.545675
10240,-9.402030,-1.194707,4.228160,0.348266,0.642574,-1.041202,62.989738,27.445528,26.545675
10243,-9.536105,-1.146823,4.182671,0.328415,0.637911,-1.022816,62.989738,27.445528,26.545675
10414,-9.947908,-0.706290,3.136404,-0.769144,-0.138694,0.220231,64.489494,22.796286,23.546164
10417,-9.509769,-0.335188,3.026271,-0.790195,-0.153349,0.277387,64.489494,22.796286,23.546164
10421,-9.212888,0.067038,3.275268,-0.816041,-0.160544,0.320954,63.739616,22.796286,24.745968
10424,-8.607155,0.074220,3.519476,-0.849216,-0.161876,0.372115,63.739616,22.796286,24.745968
10428,-8.312668,-0.150835,3.876213,-0.870400,-0.137361,0.430603,63.739616,22.796286,24.745968
10431,-8.008605,-0.234632,4.098873,-0.897046,-0.109916,0.481764,63.139713,23.396189,23.396189
10435,-7.764396,-0.318429,4.161122,-0.911302,-0.072744,0.531726,63.139713,23.396189,23.396189
10438,-7.623138,-0.258574,4.108450,-0.921161,-0.026113,0.577957,63.139713,23.396189,23.396189
10442,-7.817069,-0.100556,4.082114,-0.935683,0.014123,0.623922,63.139713,24.146067,23.696140
10445,-7.991845,-0.124498,4.053383,-0.943677,0.047297,0.666023,63.139713,24.146067,23.696140
10449,-8.135497,-0.129287,3.988740,-0.951404,0.083536,0.716518,63.139713,24.146067,23.696140
10453,-8.386889,-0.126893,3.976769,-0.964861,0.110715,0.757953,64.339516,24.895945,23.696140
10456,-8.559271,-0.150835,3.955221,-0.966593,0.121507,0.813776,64.339516,24.895945,23.696140
10460,-8.693346,-0.205901,3.964798,-0.964727,0.139626,0.855078,62.689789,24.146067,23.696140
10463,-8.698134,-0.260968,3.938462,-0.969657,0.141625,0.896513,62.689789,24.146067,23.696140
10549,-9.217676,-1.060631,4.189853,-0.208640,0.015721,0.072345,64.939423,27.445528,22.796286
10553,-9.088389,-0.969652,4.206613,-0.185058,0.025447,0.002798,64.939423,27.445528,22.796286
10557,-9.078813,-0.881066,4.261679,-0.166939,0.045432,-0.078606,64.939423,27.445528,22.796286
10561,-8.908825,-0.857124,4.247314,-0.150818,0.055824,-0.125371,64.939423,27.145578,23.996090
10564,-8.884883,-0.763750,4.170700,-0.131233,0.075409,-0.186124,64.939423,27.145578,23.996090
10568,-8.971074,-0.579397,4.223372,-0.120974,0.091796,-0.214502,64.939423,27.145578,23.996090
10572,-9.040505,-0.605733,4.163517,-0.118709,0.108983,-0.248077,63.589642,26.545675,23.696140
10576,-9.085996,-0.574608,4.101267,-0.118842,0.113113,-0.256603,63.589642,26.545675,23.696140
10580,-9.109938,-0.512359,4.103662,-0.117243,0.122306,-0.260467,62.689789,27.295553,23.696140
10584,-9.176975,-0.514753,4.127604,-0.123905,0.135896,-0.253806,62.689789,27.295553,24.895945
10588,-9.251195,-0.538695,4.036624,-0.123905,0.140426,-0.231156,62.689789,27.295553,24.895945
10592,-9.320627,-0.483629,3.988740,-0.138028,0.142424,-0.201579,64.339516,26.095749,24.146067
10596,-9.251195,-0.490811,4.010288,-0.148819,0.149485,-0.166539,64.339516,26.095749,24.146067
10600,-9.311050,-0.519542,3.962404,-0.162542,0.146688,-0.131233,64.339516,26.095749,24.146067
10604,-9.351752,-0.553061,3.914520,-0.170003,0.146021,-0.083403,63.289688,27.145578,23.246214
10774,-8.980651,-0.711078,2.743755,-0.527596,0.015055,0.226893,62.689789,27.745480,23.396189
10778,-8.968679,-0.713472,2.782062,-0.521067,0.003997,0.212504,62.689789,27.745480,23.396189
10782,-8.973468,-0.694318,2.798822,-0.504680,-0.007061,0.210505,62.389835,27.745480,24.146067
10785,-8.923190,-0.792481,2.875436,-0.495221,-0.010792,0.204643,62.389835,27.745480,24.146067
10789,-9.064447,-0.876278,2.841918,-0.479233,-0.015988,0.204243,62.389835,27.745480,24.146067
10793,-9.126697,-0.785298,2.949656,-0.461646,-0.025580,0.212904,63.589642,28.045431,24.146067
10797,-9.085996,-0.787692,2.968810,-0.451920,-0.029977,0.216634,63.589642,28.045431,24.146067
10801,-9.026140,-0.679953,3.043030,-0.430470,-0.032775,0.217034,64.339516,28.045431,24.146067
10805,-9.033323,-0.629675,3.162740,-0.413017,-0.041701,0.210905,64.339516,28.045431,24.146067
10809,-8.848969,-0.509965,3.227384,-0.398894,-0.038237,0.212237,64.339516,28.045431,24.146067
10813,-8.748413,-0.407014,3.394978,-0.377311,-0.031842,0.206508,63.589642,26.545675,24.146067
10817,-8.602366,-0.337582,3.471592,-0.366386,-0.033175,0.202511,63.589642,26.545675,24.146067
10821,-8.413225,-0.356736,3.569755,-0.348799,-0.019985,0.200913,63.289688,28.345383,24.146067
10824,-8.255207,-0.234632,3.591303,-0.330413,-0.001998,0.200513,63.289688,28.345383,24.296041
10828,-8.164227,-0.124498,3.682282,-0.312960,0.013190,0.201979,63.289688,28.345383,24.296041
10905,-6.598420,-1.829170,4.783615,1.089165,0.282051,0.023848,63.739616,27.895456,22.046408
10908,-6.720524,-1.980005,4.790798,1.187623,0.265663,-0.037838,63.739616,27.895456,22.046408
10912,-6.766014,-1.917756,4.836287,1.285149,0.246345,-0.103521,63.589642,29.245235,23.696140
10915,-6.912060,-1.953669,4.797980,1.387737,0.215302,-0.172135,63.589642,29.245235,23.696140
10919,-7.220912,-2.135628,4.833893,1.486994,0.184925,-0.252207,63.589642,29.245235,23.696140
10922,-7.479486,-2.097321,4.841076,1.578257,0.148819,-0.336409,64.039566,29.095261,22.046408
10926,-7.752425,-1.982399,4.812346,1.680179,0.103121,-0.433934,64.039566,29.095261,22.046408
10929,-7.941567,-2.059013,4.745308,1.771443,0.051560,-0.537322,64.039566,29.095261,22.046408
10933,-8.303091,-2.140416,4.740520,1.859109,-0.008260,-0.654299,62.689789,28.045431,22.196384
10937,-8.760384,-2.142811,4.778827,1.968625,-0.083536,-0.806315,62.689789,28.045431,22.196384
10941,-9.169792,-2.044648,4.673482,2.058290,-0.151351,-0.927822,62.689789,28.045431,22.196384
10945,-9.471462,-2.051831,4.661511,2.149420,-0.247810,-1.096227,63.889591,27.295553,21.446507
10949,-9.739613,-2.166753,4.589684,2.234155,-0.324285,-1.240783,63.889591,27.295553,21.446507
10953,-9.923966,-2.310405,4.544195,2.330481,-0.430204,-1.425708,63.589642,26.845627,21.896433
10957,-10.201694,-2.389413,4.577713,2.405623,-0.511342,-1.574660,63.589642,26.845627,21.896433
11127,-9.394848,-3.325546,3.794810,1.890818,-0.645772,-1.254239,62.539810,9.748412,28.495358
11131,-9.794679,-3.493140,3.768473,1.833528,-0.637511,-1.176432,62.539810,9.748412,28.495358
11135,-9.878476,-3.615245,3.737349,1.762383,-0.639643,-1.066649,61.489983,10.498290,29.245235
11139,-9.849746,-3.787627,3.744531,1.719749,-0.645372,-1.034674,61.489983,10.498290,29.245235
11142,-9.536105,-3.476381,3.876213,1.658329,-0.643773,-0.900776,62.539810,9.448461,28.795309
11146,-9.131485,-3.050213,4.043807,1.592646,-0.629251,-0.782067,62.539810,9.448461,28.795309
11150,-9.421184,-3.366248,4.201824,1.514306,-0.604070,-0.671352,62.539810,9.448461,28.795309
11154,-9.349358,-3.356671,4.252102,1.462213,-0.591547,-0.590348,62.539810,10.498290,29.995113
11158,-9.528923,-3.294421,4.146757,1.398129,-0.573294,-0.472571,62.539810,10.498290,29.995113
11162,-9.301474,-3.055001,4.108450,1.317657,-0.558639,-0.350798,62.239861,10.198339,29.245235
11166,-9.062054,-2.645593,4.228160,1.245712,-0.546781,-0.256070,62.239861,10.198339,29.245235
11170,-9.447520,-2.712631,4.364630,1.159911,-0.519602,-0.162409,62.239861,10.198339,29.245235
11174,-9.332599,-2.691083,4.412514,1.071579,-0.501216,-0.064750,62.239861,10.198339,29.245235
11178,-9.119514,-2.444480,4.541800,0.974320,-0.475502,0.036505,62.239861,10.198339,29.245235
11181,-9.059659,-2.133234,4.639963,0.888119,-0.446858,0.123639,62.239861,10.198339,29.245235
11316,-8.757990,-3.275268,4.417302,-0.309363,0.684675,0.261799,62.239861,12.897899,29.545187
11319,-8.774749,-3.124433,4.453215,-0.282051,0.692536,0.240749,62.239861,12.897899,29.545187
11323,-8.757990,-3.007117,4.424485,-0.269260,0.700397,0.216767,62.389835,12.297997,30.445040
11326,-8.760384,-2.875436,4.412514,-0.254472,0.707724,0.195317,62.389835,12.297997,30.445040
11330,-8.803479,-2.717419,4.426879,-0.238084,0.702395,0.165873,62.389835,12.297997,30.445040
11334,-8.856153,-2.573767,4.529830,-0.225427,0.697865,0.131632,61.939911,13.947728,28.195406
11338,-8.738836,-2.401384,4.594473,-0.218632,0.682810,0.111914,61.939911,13.947728,28.195406
11342,-8.693346,-2.353500,4.692636,-0.208640,0.673351,0.088599,61.939911,13.947728,28.195406
11346,-8.614338,-2.219425,4.651934,-0.198914,0.660960,0.067282,61.939911,13.947728,28.195406
11350,-8.683769,-2.221819,4.637568,-0.185991,0.642708,0.049162,61.939911,13.947728,28.195406
11354,-8.667010,-2.260126,4.594473,-0.187989,0.621391,0.031176,62.989738,13.647777,27.295553
11357,-8.753201,-2.224213,4.599261,-0.176398,0.603005,0.022649,62.989738,13.647777,27.295553
11361,-8.633492,-2.205060,4.580108,-0.170669,0.573960,0.006928,62.989738,13.647777,27.295553
11365,-8.583213,-2.224213,4.608838,-0.166406,0.557573,-0.002398,62.989738,13.647777,27.295553
11369,-8.506598,-2.269703,4.580108,-0.155881,0.529328,-0.003464,62.989738,13.647777,27.295553
11420,-7.740454,-2.420538,5.106832,0.040636,0.373980,-0.219698,63.139713,14.697606,27.145578
11424,-7.788338,-2.293645,5.037400,0.037571,0.366519,-0.234620,61.489983,13.347826,26.545675
11428,-7.790732,-2.166753,5.082890,0.044366,0.366652,-0.243813,61.489983,13.347826,26.545675
11431,-7.735666,-2.082955,5.207389,0.041302,0.359991,-0.250874,61.489983,13.347826,26.545675
11435,-7.788338,-1.987187,5.207389,0.034374,0.358658,-0.264864,62.989738,12.897899,26.995602
11438,-7.771579,-1.922544,5.176264,0.022250,0.354129,-0.274323,62.989738,12.897899,26.995602
11442,-7.790732,-1.841141,5.154716,0.014655,0.349865,-0.275522,62.989738,12.897899,26.995602
11446,-7.740454,-1.881842,5.073313,-0.002132,0.341738,-0.278587,63.139713,13.047874,26.695652
11450,-7.838616,-1.824382,5.118803,-0.010792,0.330680,-0.270859,63.139713,13.047874,26.695652
11453,-7.826645,-1.812411,5.035006,-0.017587,0.324018,-0.258469,63.139713,11.548119,27.145578
11457,-7.898471,-1.788469,5.056554,-0.036905,0.314292,-0.228891,63.139713,11.548119,27.145578
11460,-7.864953,-1.831564,4.948815,-0.046498,0.302701,-0.201046,63.139713,11.548119,27.145578
11464,-7.850587,-1.793257,4.903325,-0.058622,0.292975,-0.170536,63.739616,13.347826,26.245724
11467,-7.927202,-1.845930,4.903325,-0.065949,0.269260,-0.126436,63.739616,13.347826,26.245724
11471,-8.022970,-1.932121,4.853047,-0.081138,0.255005,-0.083403,63.739616,13.347826,26.245724
11522,-8.724471,-2.240973,4.759673,-0.183726,-0.018119,0.371449,63.889591,13.047874,25.645823
11526,-8.760384,-2.243367,4.752491,-0.185191,-0.037438,0.352397,63.739616,13.647777,27.745480
11529,-8.633492,-2.427721,4.733337,-0.183726,-0.055291,0.336009,63.739616,13.647777,27.745480
11533,-8.664616,-2.331953,4.745308,-0.184126,-0.069014,0.318689,63.739616,13.647777,27.745480
11536,-8.667010,-2.260126,4.690241,-0.188789,-0.084602,0.297505,63.739616,13.647777,27.745480
11540,-8.638280,-2.336741,4.673482,-0.187723,-0.096326,0.274723,63.739616,13.647777,27.745480
11543,-8.710106,-2.329558,4.635174,-0.188655,-0.104587,0.262466,62.689789,13.497801,26.395700
11547,-8.705317,-2.343924,4.625597,-0.184925,-0.117377,0.240349,62.689789,13.497801,26.395700
11550,-8.767567,-2.346318,4.604050,-0.184925,-0.124971,0.234753,62.689789,13.497801,26.395700
11554,-8.808268,-2.219425,4.642357,-0.183992,-0.133897,0.225427,62.689789,13.497801,26.395700
11557,-8.698134,-2.183512,4.639963,-0.182660,-0.137361,0.218899,62.689789,13.497801,26.395700
11561,-8.595184,-2.193089,4.556166,-0.189455,-0.141625,0.217966,62.689789,13.497801,26.395700
11564,-8.513782,-2.195483,4.525041,-0.190121,-0.146688,0.218233,63.139713,14.247679,26.395700
11568,-8.511387,-2.188300,4.517859,-0.191720,-0.143890,0.218899,63.139713,14.247679,26.395700
11572,-8.523358,-2.221819,4.489128,-0.192786,-0.149619,0.226227,63.139713,14.247679,26.395700
11626,-8.449138,-1.733402,4.613626,-0.141225,-0.107384,0.276455,64.039566,12.897899,26.245724
11629,-8.458714,-1.826776,4.635174,-0.134830,-0.108317,0.257936,64.039566,12.897899,26.245724
11633,-8.477868,-1.848324,4.685453,-0.134830,-0.099524,0.248609,63.139713,12.897899,26.245724
11636,-8.444349,-1.896208,4.692636,-0.123505,-0.100456,0.242881,63.139713,13.947728,27.445528
11640,-8.532935,-1.975216,4.654328,-0.116577,-0.098991,0.236885,63.139713,13.947728,27.445528
11644,-8.573636,-2.061408,4.584896,-0.101655,-0.100323,0.228891,62.539810,14.547630,25.795797
11647,-8.540117,-2.068590,4.668694,-0.083403,-0.091663,0.233155,62.539810,14.547630,25.795797
11651,-8.506598,-2.085350,4.678270,-0.064884,-0.093395,0.237818,62.539810,14.547630,25.795797
11654,-8.470686,-2.047042,4.666299,-0.051028,-0.091930,0.233688,61.789932,14.547630,26.245724
11658,-8.293514,-2.142811,4.838682,-0.032242,-0.078740,0.232355,61.789932,14.547630,26.245724
11661,-8.216900,-2.085350,4.953603,0.000666,-0.073011,0.224628,61.789932,14.547630,26.245724
11665,-8.075643,-1.932121,5.054160,0.020651,-0.050228,0.206109,63.589642,14.247679,27.445528
11668,-7.912837,-1.941698,5.078102,0.049296,-0.037172,0.179862,63.589642,14.247679,27.445528
11672,-7.872135,-1.999158,4.975151,0.067415,-0.009992,0.142824,63.589642,14.247679,27.445528
11675,-7.908048,-1.874660,4.996699,0.097525,0.013723,0.107518,63.289688,15.297508,26.545675
11729,-8.154651,-1.989582,5.233725,0.617527,0.313493,-0.485894,64.039566,14.847581,26.245724
11733,-8.259995,-1.939303,5.212177,0.647104,0.320554,-0.501349,64.039566,14.847581,26.245724
11737,-8.389283,-1.829170,5.255273,0.685075,0.322020,-0.514139,64.489494,13.347826,24.745968
11740,-8.341399,-1.757344,5.286397,0.712254,0.324951,-0.531726,64.489494,13.347826,24.745968
11744,-8.324639,-1.762132,5.243302,0.751691,0.323352,-0.542917,64.489494,13.347826,24.745968
11748,-8.384495,-1.728614,5.193024,0.780602,0.323619,-0.559038,64.489494,13.347826,24.745968
11751,-8.439561,-1.824382,5.216966,0.806449,0.334810,-0.569564,64.489494,13.347826,24.745968
11755,-8.482656,-1.821988,5.145139,0.835493,0.333345,-0.573427,61.639957,13.047874,27.895456
11758,-8.497022,-1.802834,5.137957,0.869201,0.336675,-0.578090,61.639957,13.047874,27.895456
11762,-8.528147,-1.817199,5.037400,0.890784,0.332545,-0.572095,61.639957,13.047874,27.895456
11765,-8.741230,-1.680730,4.977545,0.914366,0.336409,-0.559571,62.539810,14.097703,25.795797
11769,-8.899248,-1.644817,4.953603,0.935550,0.339340,-0.529194,62.539810,14.097703,25.795797
11772,-8.975863,-1.719037,4.912902,0.947141,0.337208,-0.485361,62.539810,14.097703,25.795797
11776,-9.085996,-1.807622,4.807557,0.951271,0.332145,-0.441395,62.989738,12.897899,25.795797
11779,-9.141062,-1.850718,4.783615,0.952070,0.328681,-0.378776,62.989738,12.897899,25.795797
11835,-10.151415,-2.238579,4.170700,0.291776,0.498685,0.198648,63.139713,14.247679,25.645823
11838,-10.184934,-2.190695,4.163517,0.219832,0.517204,0.197315,63.139713,14.247679,25.645823
11842,-10.132261,-2.181118,3.962404,0.140959,0.525064,0.190254,63.139713,14.247679,25.645823
11845,-10.374076,-1.886631,3.902549,0.067415,0.529994,0.191320,63.589642,13.047874,24.446018
11849,-10.474632,-1.814805,3.912126,-0.021317,0.538521,0.187057,63.589642,13.047874,24.446018
11852,-10.347740,-1.702277,3.933673,-0.114312,0.546781,0.185458,63.589642,13.047874,24.446018
11856,-10.122684,-1.620875,3.881001,-0.226626,0.549312,0.202778,63.589642,13.047874,24.446018
11859,-9.816227,-1.702277,3.859453,-0.319089,0.563835,0.222363,63.589642,13.047874,24.446018
11863,-9.624691,-1.551443,3.761291,-0.414083,0.575426,0.247544,63.589642,13.047874,24.446018
11867,-9.414001,-1.434127,3.737349,-0.516271,0.597009,0.284315,64.639473,15.147532,23.696140
11870,-9.234436,-1.259350,3.689465,-0.609266,0.618992,0.337874,64.639473,15.147532,23.696140
11874,-9.059659,-1.163582,3.622427,-0.709057,0.636579,0.403158,64.639473,15.147532,23.696140
11877,-9.028535,-1.206678,3.509900,-0.810046,0.660560,0.481364,64.639473,15.147532,23.696140
11881,-9.023746,-1.206678,3.423708,-0.906505,0.682410,0.564234,64.639473,15.147532,23.696140
11884,-9.014170,-1.187524,3.330335,-0.998435,0.701862,0.658695,63.139713,14.697606,24.146067
11939,-10.560823,-2.238579,2.212242,-1.821671,0.350265,2.224429,63.139713,17.097216,23.396189
11943,-10.500969,-2.214637,2.269703,-1.830064,0.317357,2.294775,63.139713,17.097216,23.396189
11946,-10.228029,-2.221819,2.331953,-1.825268,0.283516,2.343671,62.689789,17.847092,21.896433
11950,-9.806650,-2.264915,2.236184,-1.824735,0.258469,2.377911,62.689789,17.847092,21.896433
11953,-9.619903,-2.276886,2.185906,-1.814743,0.245145,2.394032,62.689789,17.847092,21.896433
11957,-9.464279,-2.276886,2.152387,-1.801819,0.233155,2.390435,63.589642,17.397165,22.646311
11960,-9.406818,-2.238579,2.212242,-1.789562,0.236619,2.373115,63.589642,17.397165,22.646311
11964,-9.251195,-2.140416,2.255338,-1.778237,0.233821,2.338874,63.589642,17.397165,22.646311
11967,-9.272743,-2.149993,2.355895,-1.756387,0.245545,2.291577,62.989738,19.646799,22.496336
11971,-9.215282,-1.900996,2.389413,-1.739201,0.245145,2.229891,62.989738,19.646799,22.496336
11974,-9.294291,-1.841141,2.475605,-1.719482,0.253672,2.163276,63.739616,19.646799,21.746458
11978,-9.334992,-1.764527,2.446874,-1.702695,0.258735,2.078274,63.739616,19.646799,21.746458
11981,-9.414001,-1.584962,2.458845,-1.692969,0.261266,1.991407,63.739616,19.646799,21.746458
11985,-9.459491,-1.546654,2.573767,-1.683377,0.261933,1.910403,63.139713,21.746458,21.446507
11988,-9.497798,-1.326388,2.652776,-1.668055,0.262199,1.821404,63.139713,21.746458,21.446507
12068,-7.991845,-0.797269,3.234566,-1.202678,0.310695,0.960597,63.289688,26.245724,22.046408
12072,-7.924808,-0.816423,3.222595,-1.137662,0.312028,0.903841,63.289688,26.245724,22.046408
12075,-7.960721,-0.852336,3.323152,-1.083969,0.311095,0.857210,63.139713,25.345871,21.146555
12079,-7.975086,-0.775721,3.313575,-1.045066,0.317224,0.831763,63.139713,25.345871,21.146555
12082,-8.027759,-0.775721,3.320758,-0.992173,0.313093,0.791527,63.139713,25.345871,21.146555
12086,-8.116343,-0.857124,3.284845,-0.937815,0.307231,0.768611,62.689789,25.345871,21.446507
12089,-8.312668,-0.948104,3.339911,-0.886121,0.295240,0.730507,62.689789,25.345871,21.446507
12093,-8.568848,-0.988805,3.399766,-0.833761,0.285515,0.701995,62.689789,25.345871,21.446507
12096,-8.700529,-0.787692,3.473987,-0.773807,0.265263,0.674949,63.289688,26.695652,21.746458
12100,-8.619126,-0.782904,3.538630,-0.715452,0.242614,0.635247,63.289688,26.695652,21.746458
12103,-8.585608,-0.826000,3.557784,-0.666689,0.223562,0.597942,63.289688,26.695652,21.746458
12107,-8.571242,-0.679953,3.557784,-0.605536,0.207841,0.558772,63.589642,26.845627,20.696629
12110,-8.559271,-0.646434,3.615245,-0.561703,0.186790,0.507611,63.589642,26.845627,20.696629
12114,-8.583213,-0.483629,3.608062,-0.515605,0.168804,0.454185,63.589642,26.845627,20.696629
12117,-8.657434,-0.433351,3.586514,-0.466709,0.146688,0.394764,61.639957,27.745480,21.896433
12171,-8.927979,0.330400,3.967192,-0.109383,-0.178930,0.177464,63.889591,27.745480,22.196384
12174,-8.927979,0.399832,3.976769,-0.106452,-0.189455,0.196116,63.889591,27.745480,22.196384
12178,-8.899248,0.490811,3.933673,-0.111648,-0.193851,0.214502,63.889591,27.745480,22.196384
12181,-8.930372,0.548272,3.885789,-0.116844,-0.196916,0.215968,63.889591,27.745480,22.196384
12185,-8.966286,0.502782,3.897760,-0.127369,-0.202378,0.226493,62.689789,27.745480,22.196384
12188,-9.083601,0.459687,3.919308,-0.133364,-0.199847,0.226893,62.689789,28.495358,20.396677
12192,-9.112331,0.478840,3.955221,-0.137628,-0.198914,0.227159,62.689789,28.495358,20.396677
12195,-9.095572,0.414197,3.912126,-0.143890,-0.199447,0.222629,62.689789,28.495358,20.396677
12199,-9.174581,0.363919,3.960010,-0.146688,-0.203178,0.223962,62.689789,28.495358,20.396677
12202,-9.217676,0.359130,3.924097,-0.156280,-0.201446,0.216900,62.689789,28.495358,20.396677
12206,-9.270349,0.232238,3.828329,-0.158812,-0.203311,0.216101,62.539810,27.445528,21.296530
12209,-9.303867,0.160412,3.792415,-0.160277,-0.198914,0.215168,62.539810,27.445528,21.296530
12213,-9.313444,0.129287,3.804387,-0.168937,-0.197848,0.216368,62.539810,27.445528,21.296530
12216,-9.272743,0.246603,3.840300,-0.166672,-0.190387,0.218366,62.539810,27.445528,21.296530
12220,-9.236830,0.296881,3.801992,-0.170270,-0.186524,0.220897,62.539810,27.445528,21.296530
12279,-9.411607,0.213084,3.390190,-0.290977,-0.010925,0.405689,63.889591,29.245235,22.946262
12283,-9.437943,0.203507,3.390190,-0.288179,-0.011724,0.394764,63.889591,29.245235,22.946262
12286,-9.421184,0.234632,3.342306,-0.283783,0.000533,0.381441,61.190033,28.495358,22.946262
12290,-9.488221,0.241814,3.311181,-0.272058,0.005596,0.367452,61.190033,28.495358,22.946262
12294,-9.519346,0.241814,3.344700,-0.266995,0.009726,0.346668,61.190033,28.495358,22.946262
12297,-9.493010,0.186748,3.308787,-0.257270,0.008793,0.334544,62.989738,28.345383,22.796286
12301,-9.552865,0.213084,3.303998,-0.252606,0.007861,0.319622,62.989738,28.345383,22.796286
12304,-9.524135,0.284910,3.246537,-0.243280,0.015055,0.312161,62.989738,28.345383,22.796286
12308,-9.574412,0.306458,3.241749,-0.236619,0.016254,0.307631,64.339516,29.995113,21.446507
12311,-9.552865,0.354342,3.217807,-0.223562,0.017187,0.310296,64.339516,29.995113,21.446507
12315,-9.507375,0.464475,3.234566,-0.217167,0.014123,0.319888,64.339516,29.995113,21.446507
12318,-9.493010,0.428562,3.162740,-0.213037,0.022916,0.327482,62.389835,29.695162,22.646311
12322,-9.437943,0.447716,3.181894,-0.211438,0.022916,0.350132,62.389835,29.695162,22.646311
12325,-9.332599,0.541090,3.172317,-0.216234,0.021983,0.372914,62.389835,29.695162,22.646311
12329,-9.208099,0.605733,3.217807,-0.212237,0.031842,0.400760,64.039566,29.395212,21.746458
12379,-10.024523,0.057461,2.853889,-0.152417,0.075409,0.724778,61.489983,29.395212,22.496336
12383,-10.043676,0.131681,2.779668,-0.138560,0.072211,0.710655,61.489983,29.395212,22.496336
12386,-10.098742,0.179565,2.834735,-0.130433,0.070213,0.689205,61.489983,29.395212,22.496336
12390,-10.081984,0.227449,2.801216,-0.115911,0.071279,0.649769,61.489983,29.395212,22.496336
12394,-10.103531,0.239420,2.729390,-0.100456,0.070613,0.597942,61.489983,29.395212,22.496336
12397,-10.022128,0.222661,2.774880,-0.094994,0.072744,0.546781,62.689789,30.894966,20.696629
12401,-9.995792,0.239420,2.755726,-0.089665,0.077674,0.488026,62.689789,30.894966,20.696629
12404,-9.986216,0.325611,2.829947,-0.080871,0.088865,0.427806,62.689789,30.894966,20.696629
12408,-9.979033,0.354342,2.880225,-0.077807,0.093528,0.371315,62.689789,30.894966,20.696629
12411,-9.926360,0.433351,2.853889,-0.079006,0.105786,0.317090,62.689789,30.894966,20.696629
12415,-9.876082,0.466869,2.822764,-0.082737,0.115378,0.269793,62.689789,30.894966,20.696629
12418,-9.842564,0.574608,2.832341,-0.083403,0.123239,0.238617,63.289688,31.044943,23.246214
12422,-9.840169,0.591368,2.853889,-0.092063,0.133764,0.222096,63.289688,31.044943,23.246214
12425,-9.864111,0.641646,2.913743,-0.106052,0.146954,0.211438,63.289688,31.044943,23.246214
12428,-9.742006,0.725443,2.932897,-0.111914,0.156147,0.207041,64.339516,30.894966,22.946262
12481,-8.719683,1.503559,3.062184,-0.412217,0.505746,0.651900,62.539810,32.994625,20.996580
12484,-8.667010,1.295263,3.126827,-0.429804,0.527995,0.658162,62.539810,32.994625,20.996580
12488,-8.688558,1.233014,3.217807,-0.441662,0.538654,0.659495,62.389835,32.394722,21.896433
12491,-8.731653,1.386243,3.246537,-0.449389,0.548646,0.656297,62.389835,32.394722,21.896433
12495,-8.695741,1.443704,3.160346,-0.457783,0.553443,0.656963,62.389835,32.394722,21.896433
12498,-8.863335,1.393425,3.114856,-0.464977,0.553043,0.647504,63.289688,31.794821,22.496336
12502,-8.947132,1.367089,3.071761,-0.467642,0.548113,0.641508,63.289688,31.794821,22.496336
12505,-9.131485,1.177947,3.050213,-0.461113,0.534657,0.640309,63.289688,31.794821,22.496336
12509,-9.097966,1.115698,3.009511,-0.457649,0.523199,0.627253,61.789932,34.644356,20.246702
12512,-9.124303,1.156399,3.033453,-0.443660,0.506945,0.612730,61.789932,34.644356,20.246702
12516,-9.100361,1.024718,3.055001,-0.437398,0.492556,0.597009,61.789932,34.644356,20.246702
12519,-9.109938,1.072602,2.999935,-0.417680,0.464044,0.574893,61.789932,34.644356,20.246702
12523,-9.047688,0.967257,3.002329,-0.398894,0.437665,0.558639,61.789932,34.644356,20.246702
12526,-9.016563,0.902614,3.057395,-0.367718,0.413949,0.537322,63.589642,34.044453,21.896433
12530,-9.083601,0.972046,3.064578,-0.344270,0.388369,0.506678,63.589642,34.044453,21.896433
12583,-8.798691,0.902614,3.251326,0.191720,-0.177864,-0.293642,61.489983,34.944309,20.996580
12587,-8.801085,1.015141,3.292027,0.218899,-0.202911,-0.332412,61.939911,34.044453,21.146555
12590,-8.760384,1.094150,3.296816,0.239683,-0.220231,-0.376245,61.939911,34.044453,21.146555
12594,-8.714894,1.233014,3.359065,0.255937,-0.226360,-0.408220,61.939911,34.044453,21.146555
12597,-8.619126,1.278504,3.428497,0.267129,-0.242881,-0.436332,61.639957,33.144600,21.146555
12601,-8.724471,1.261744,3.490746,0.276588,-0.246877,-0.451920,61.639957,33.144600,21.146555
12604,-8.635885,1.216254,3.442862,0.279652,-0.250208,-0.482164,61.639957,33.144600,21.146555
12608,-8.731653,1.235408,3.464410,0.285914,-0.247277,-0.499484,61.639957,34.794331,21.896433
12611,-8.808268,1.223437,3.483563,0.284582,-0.247544,-0.499617,61.639957,34.794331,21.896433
12615,-8.793902,1.139640,3.529053,0.282983,-0.248343,-0.495487,61.639957,34.794331,21.896433
12618,-8.774749,1.192312,3.564966,0.281917,-0.242881,-0.485628,61.789932,32.994625,20.246702
12622,-8.774749,1.106121,3.557784,0.287513,-0.239283,-0.468441,61.789932,32.994625,20.246702
12625,-8.676587,1.074997,3.545813,0.281118,-0.229824,-0.455251,61.789932,32.994625,20.246702
12628,-8.693346,1.173159,3.512294,0.269394,-0.219432,-0.443527,62.239861,32.994625,22.496336
12632,-8.655039,1.185130,3.440468,0.259135,-0.201579,-0.431936,62.239861,32.994625,22.496336
12689,-9.382876,1.115698,3.296816,-0.045832,-0.013057,0.002931,62.539810,32.244747,22.046408
12693,-9.445126,1.039083,3.229778,-0.055025,-0.005729,0.029311,62.539810,32.244747,22.046408
12696,-9.457097,0.998382,3.210624,-0.067282,-0.006528,0.045698,63.139713,32.244747,22.046408
12700,-9.409213,0.967257,3.193865,-0.081138,0.001732,0.067282,63.139713,32.394722,21.896433
12703,-9.303867,0.888249,3.155558,-0.088199,0.009060,0.078740,63.139713,32.394722,21.896433
12707,-9.404425,0.888249,3.086126,-0.095926,0.016387,0.090198,63.139713,32.394722,21.896433
12710,-9.406818,0.792481,3.004723,-0.104853,0.018919,0.099390,63.139713,32.394722,21.896433
12714,-9.344569,0.866701,3.071761,-0.107251,0.030510,0.111515,63.139713,32.394722,21.896433
12717,-9.346964,0.849942,2.978387,-0.110449,0.035573,0.114845,62.989738,32.544697,21.296530
12721,-9.370906,0.830788,2.930503,-0.110848,0.039570,0.115645,62.989738,32.544697,21.296530
12724,-9.387665,0.761356,2.928109,-0.113646,0.046631,0.127103,62.989738,32.544697,21.296530
12728,-9.399636,0.739808,2.882619,-0.116444,0.053159,0.127103,62.989738,32.544697,21.296530
12731,-9.363723,0.737414,2.894590,-0.116444,0.052626,0.134697,62.989738,32.544697,21.296530
12735,-9.490616,0.778116,2.973598,-0.115245,0.057689,0.140426,62.989738,32.544697,21.296530
12738,-9.445126,0.718261,2.906561,-0.108717,0.062485,0.150152,63.139713,32.394722,21.446507
12791,-9.476251,0.816423,2.815581,0.029311,0.014389,0.102188,60.440155,32.844650,21.446507
12794,-9.490616,0.797269,2.913743,0.046897,0.009726,0.092329,60.440155,32.844650,21.446507
12798,-9.461885,0.869095,2.920926,0.049029,0.018919,0.079939,61.190033,33.594528,22.196384
12801,-9.428367,0.878672,2.906561,0.061153,0.015721,0.058622,61.190033,33.594528,22.196384
12805,-9.354146,0.962469,2.894590,0.061819,0.010925,0.042368,61.190033,33.594528,22.196384
12808,-9.375694,1.039083,2.959233,0.065550,0.014256,0.013590,62.389835,33.144600,20.696629
12812,-9.334992,1.094150,2.956839,0.070879,0.015988,-0.009593,62.389835,33.144600,20.696629
12815,-9.334992,1.063026,2.861071,0.066882,0.017187,-0.036639,62.389835,33.144600,20.696629
12818,-9.279925,1.029507,2.822764,0.068081,0.022383,-0.064484,62.989738,32.994625,22.496336
12822,-9.380483,1.010353,2.908955,0.059021,0.024914,-0.086201,62.989738,32.994625,22.496336
12825,-9.330204,0.981623,2.829947,0.069280,0.019718,-0.110715,62.989738,32.994625,22.496336
12829,-9.366117,0.933739,2.837129,0.064351,0.025847,-0.130966,62.539810,33.744503,20.996580
12832,-9.354146,0.814029,2.750938,0.067815,0.023449,-0.140159,62.539810,33.744503,20.996580
12836,-9.334992,0.799663,2.753332,0.069680,0.022250,-0.154548,62.539810,33.744503,20.996580
12840,-9.330204,0.766145,2.765303,0.074743,0.020651,-0.159345,60.890079,31.944796,21.146555
12896,-9.133880,1.051055,2.853889,0.086067,0.042234,-0.119508,62.389835,33.144600,20.396677
12899,-9.145850,0.988805,2.894590,0.083802,0.039969,-0.105119,62.389835,33.144600,20.396677
12903,-9.222465,1.036689,2.877831,0.086467,0.037971,-0.093795,62.389835,33.144600,20.396677
12907,-9.229648,0.960075,2.911349,0.084868,0.040502,-0.080338,62.389835,33.144600,20.396677
12910,-9.255983,1.017536,2.916138,0.084868,0.037971,-0.068214,61.939911,33.144600,20.696629
12914,-9.296685,1.010353,2.877831,0.082870,0.033441,-0.062885,61.939911,33.144600,20.696629
12917,-9.387665,1.005565,2.987964,0.081404,0.027712,-0.043833,61.939911,33.144600,20.696629
12921,-9.497798,0.988805,3.023877,0.077141,0.026513,-0.037038,61.939911,33.144600,20.696629
12924,-9.466674,0.976834,2.975993,0.069547,0.021450,-0.026513,61.939911,33.144600,20.696629
12928,-9.495404,1.000776,3.011906,0.068747,0.011191,-0.028511,63.289688,32.244747,20.996580
12931,-9.493010,1.015141,2.992752,0.063551,0.010392,-0.018519,63.289688,32.244747,20.996580
12935,-9.457097,1.070208,2.995146,0.054758,0.003464,-0.024115,63.289688,32.244747,20.996580
12938,-9.464279,1.101333,3.047819,0.048496,-0.001066,-0.031975,62.539810,31.794821,20.546654
12942,-9.449914,1.134852,3.057395,0.038371,0.002798,-0.043966,62.539810,31.794821,20.546654
